Ax,Ay,Az,Gx,Gy,Gz,Flow_X,Flow_Y,LiDar
-29.11,-22.89,1009.09,1.1,-3.42,5.74,0,0,10
-28.38,-20.32,1010.38,-1.83,-3.54,3.54,0,0,11
-28.38,-20.32,1010.38,-1.95,1.34,-7.93,0,0,10
-27.28,-19.96,1012.39,0,-2.56,-2.32,0,0,10
-27.28,-19.96,1012.39,5.74,1.59,-8.06,0,0,11
-28.02,-22.71,1012.76,3.05,0.61,-0.12,0,0,10
-28.02,-22.71,1012.76,-0.85,0.24,8.18,0,0,10
-27.83,-23.25,1011.47,-0.85,-0.24,-1.22,0,0,10
-27.83,-23.25,1011.47,2.56,0.37,-1.59,0,0,10
-26.18,-23.99,1011.11,2.81,1.34,2.93,0,0,9
-26.18,-23.99,1011.11,-0.73,5,-2.08,0,0,10
-27.1,-23.99,1009.83,2.08,3.05,2.44,0,0,10
-27.1,-23.99,1009.83,0.98,0,3.3,0,0,10
-27.1,-23.99,1009.83,2.2,2.32,3.54,0,0,10
-27.47,-24.17,1012.76,-0.37,-0.49,-0.98,0,0,10
-27.47,-24.17,1012.76,-3.42,0.61,-3.3,0,0,11
-27.1,-27.1,1010.38,-2.44,-6.59,1.34,0,0,10
-27.1,-27.1,1010.38,1.34,-1.46,-1.22,0,0,10
-28.93,-28.56,1011.11,-3.66,1.71,5.37,0,0,10
-28.93,-28.56,1011.11,0.49,-1.59,-3.91,0,0,10
-28.93,-28.56,1011.11,5.13,0,-1.34,0,0,10
-28.93,-28.56,1011.11,-1.83,-6.96,1.83,0,0,10
-28.38,-21.61,1008.73,0,-1.22,5.25,0,0,10
-28.38,-21.61,1008.73,2.2,1.71,2.81,0,0,10
-28.2,-20.32,1008.73,-2.32,1.1,0.12,0,0,10
-28.2,-20.32,1008.73,1.34,1.34,-5,0,0,10
-28.02,-19.78,1011.29,-6.84,-0.98,5,0,0,10
-28.02,-19.78,1011.29,-2.2,-0.85,-8.3,0,0,11
-26.37,-20.69,1011.47,5,-6.35,-8.18,0,0,10
-26.37,-20.69,1011.47,-0.98,-2.69,3.17,0,0,10
-27.83,-18.31,1009.46,-1.95,-1.83,-1.59,0,0,10
-27.83,-18.31,1009.46,-1.22,-3.42,2.56,0,0,10
-28.02,-22.16,1012.02,2.32,2.93,-8.06,0,0,10
-28.02,-22.16,1012.02,3.91,2.32,-5.49,0,0,10
-28.93,-20.51,1011.29,-1.83,0.85,12.08,0,0,10
-28.93,-20.51,1011.29,-5.86,0.73,-6.96,0,0,10
-28.56,-20.14,1010.19,-3.91,2.44,4.76,0,0,10
-28.56,-20.14,1010.19,0,-4.15,4.15,0,0,10
-27.65,-20.87,1009.64,3.66,-4.15,-4.39,0,0,10
-27.65,-20.87,1009.64,2.08,0.49,2.69,0,0,10
-27.1,-19.59,1010.93,0,3.05,-13.79,0,0,10
-27.1,-19.59,1010.93,1.1,-6.35,0,0,0,10
-29.3,-21.97,1010.74,0,-3.3,-3.78,0,0,10
-29.3,-21.97,1010.74,0.98,0.85,-3.42,0,0,10
-29.3,-21.97,1010.74,-2.32,-5,-3.17,0,0,11
-29.3,-21.97,1010.74,-1.95,4.76,0.24,0,0,10
-26.37,-23.25,1010.19,-0.24,-3.66,-1.46,0,0,9
-26.37,-23.25,1010.19,-0.24,0.24,-2.44,0,0,10
-27.1,-26,1010.56,-2.2,1.71,-7.32,0,0,10
-27.1,-26,1010.56,2.81,0,3.3,0,0,10
-27.1,-23.99,1011.29,5.74,6.59,4.64,0,0,10
-27.1,-23.99,1011.29,2.81,0.12,-0.73,0,0,10
-28.75,-23.07,1011.29,-1.83,0.49,1.71,0,0,10
-28.75,-23.07,1011.29,-0.37,-2.93,-4.03,0,0,9
-28.75,-23.07,1011.29,-5.86,-2.32,-3.17,0,0,10
-24.9,-21.24,1014.4,1.83,1.71,2.81,0,0,9
-24.9,-21.24,1014.4,3.17,4.76,-2.2,0,0,10
-27.65,-20.69,1012.76,3.54,0.98,-2.93,0,0,10
-27.65,-20.69,1012.76,0.85,2.44,0.12,0,0,10
-26.55,-23.62,1010.19,3.54,2.08,-4.15,0,0,10
-26.55,-23.62,1010.19,-4.27,-8.42,-6.84,0,0,10
-26.55,-23.62,1010.19,5.37,-1.95,4.52,0,0,10
-26.55,-23.62,1010.19,-2.56,-2.08,-0.24,0,0,10
-28.93,-21.24,1010.74,3.78,-0.73,3.66,0,0,10
-28.93,-21.24,1010.74,-0.73,-1.83,-1.46,0,0,10
-26.37,-20.14,1012.21,3.78,0,-1.22,0,0,9
-26.37,-20.14,1012.21,0.12,2.44,0.73,0,0,10
-28.2,-19.96,1010.01,-4.03,-2.56,2.44,0,0,10
-28.2,-19.96,1010.01,-1.46,-4.15,-0.24,0,0,10
-27.1,-20.69,1011.84,-3.66,-1.46,-0.61,0,0,10
-27.1,-20.69,1011.84,-0.37,-0.12,-6.59,0,0,10
-27.47,-19.96,1011.47,-6.1,0.49,0,0,0,10
-27.47,-19.96,1011.47,-1.95,-2.81,-1.1,0,0,10
-27.83,-19.78,1012.21,4.27,-1.34,3.66,0,0,10
-27.83,-19.78,1012.21,0.37,2.93,-1.71,0,0,10
-27.47,-19.59,1009.64,7.69,-1.59,7.69,0,0,9
-27.47,-19.59,1009.64,-3.78,4.39,-9.52,0,0,10
-27.1,-23.44,1011.47,-8.42,-4.64,-0.24,0,0,10
-27.1,-23.44,1011.47,2.2,-7.32,0.73,0,0,10
-26.55,-25.27,1008.91,0.24,-2.81,-1.22,0,0,10
-26.55,-25.27,1008.91,-2.44,-2.44,-10.99,0,0,10
-26.37,-22.52,1009.09,2.32,3.78,2.81,0,0,10
-26.37,-22.52,1009.09,-0.85,-3.42,5.62,0,0,10
-27.28,-24.54,1011.66,-0.61,2.93,2.69,0,0,10
-27.28,-24.54,1011.66,0,1.71,2.81,0,0,10
-27.28,-24.54,1011.66,2.44,-1.95,-4.64,0,0,10
-27.28,-24.54,1011.66,-4.03,2.32,-1.59,0,0,10
-27.47,-24.17,1008.18,0.98,0,1.95,0,0,10
-27.47,-24.17,1008.18,0.12,2.08,4.39,0,0,10
-28.75,-25.27,1008.54,3.42,3.42,9.4,0,0,10
-28.75,-25.27,1008.54,4.76,-6.84,-3.3,0,0,10
-29.66,-23.8,1011.47,-3.66,1.22,1.71,0,0,10
-29.66,-23.8,1011.47,0.85,4.27,-7.08,0,0,10
-27.47,-22.71,1011.29,1.22,-1.46,-1.46,0,0,10
-27.47,-22.71,1011.29,1.71,3.42,0.98,0,0,10
-28.02,-24.72,1010.56,3.78,-0.85,2.93,0,0,11
-27.28,-23.25,1011.84,-2.08,0.37,-5.86,0,0,11
-27.28,-23.25,1011.84,-7.45,0,-3.3,0,0,10
-27.28,-21.97,1010.74,0,0.12,0.73,0,0,10
-27.28,-21.97,1010.74,5.62,1.95,8.54,-1,0,9
-29.3,-24.9,1012.39,0.49,-0.73,-0.73,0,0,11
-29.3,-24.9,1012.39,0.49,2.93,-4.27,0,0,10
-29.3,-24.9,1012.39,-2.32,-10.13,1.46,0,0,11
-29.3,-24.9,1012.39,-1.59,-0.49,-1.83,0,0,10
-29.3,-24.9,1012.39,-0.12,1.22,3.91,1,0,10
-29.3,-24.9,1012.39,3.3,-3.91,-1.71,0,0,10
-25.63,-21.24,1011.47,1.1,1.1,3.17,0,0,10
-25.63,-21.24,1011.47,3.66,3.54,-5.37,0,0,9
-27.83,-23.44,1010.01,2.56,2.81,-7.69,0,0,10
-27.83,-23.44,1010.01,-0.85,2.69,-4.27,0,0,11
-28.2,-20.51,1011.47,-3.78,-0.37,-3.54,0,0,10
-28.2,-20.51,1011.47,3.78,0,6.71,0,0,10
-28.56,-17.94,1009.46,2.81,5.13,2.69,0,0,11
-28.56,-17.94,1009.46,0.37,-3.42,2.69,0,0,10
-26.18,-20.87,1011.47,-8.79,5.86,-1.83,0,0,10
-26.18,-20.87,1011.47,-0.98,-4.64,-7.81,0,0,11
-27.1,-19.23,1012.76,1.95,-1.46,1.22,0,0,10
-27.1,-19.23,1012.76,-9.64,-5.86,-9.28,0,0,10
-25.63,-22.34,1012.39,2.93,2.69,5,0,0,10
-25.63,-22.34,1012.39,0.85,2.32,7.45,0,0,10
-23.8,-23.25,1009.46,0.49,1.83,1.1,0,0,10
-23.8,-23.25,1009.46,-2.2,1.71,-0.37,0,0,10
-26.55,-21.97,1012.02,0.85,-0.49,-5.25,0,0,9
-26.55,-21.97,1012.02,-3.78,3.42,3.91,0,0,10
-26.18,-23.25,1011.47,0.73,-0.73,-8.3,0,0,10
-26.18,-23.25,1011.47,-3.66,4.15,-1.34,0,0,10
-24.54,-23.44,1012.21,-7.2,-0.12,-4.27,0,0,10
-24.54,-23.44,1012.21,1.46,-3.54,-4.76,0,0,10
-26,-22.52,1012.21,-0.49,0.37,-2.08,0,0,10
-26,-22.52,1012.21,-3.78,-1.46,-1.1,0,0,10
-25.45,-20.87,1013.49,0.73,-6.59,0.85,0,0,11
-25.45,-20.87,1013.49,-1.34,1.71,3.17,0,0,9
-29.3,-23.8,1014.95,-1.1,-4.64,9.52,0,0,10
-29.3,-23.8,1014.95,-2.69,2.2,-1.1,0,0,10
-28.56,-21.42,1012.94,-0.98,-1.22,-5.62,0,0,10
-28.56,-21.42,1012.94,4.76,2.2,2.81,0,0,10
-26.73,-22.52,1011.66,-2.44,2.56,1.34,0,0,10
-28.2,-19.04,1013.31,-1.95,-5.25,-3.78,0,0,10
-28.2,-19.04,1013.31,-2.69,1.71,-4.64,0,0,10
-29.66,-19.96,1011.66,-4.76,-5,-1.71,0,0,10
-29.66,-19.96,1011.66,3.17,3.42,7.32,0,0,10
-30.03,-23.07,1012.57,5.25,5.98,5.98,0,0,10
-30.03,-23.07,1012.57,1.71,5.37,3.91,0,0,11
-30.03,-23.07,1012.57,-4.52,5.62,-2.81,0,0,10
-30.03,-23.07,1012.57,-2.2,0.61,-0.49,0,0,10
-30.03,-23.07,1012.57,-1.83,4.03,8.91,0,0,9
-30.03,-23.07,1012.57,1.95,-0.24,-2.2,0,0,10
-28.38,-20.51,1011.29,-4.15,-2.69,-6.1,0,0,10
-28.38,-20.51,1011.29,0,1.34,6.84,0,0,11
-26.92,-21.24,1009.09,0.61,-0.24,1.95,0,0,10
-26.92,-21.24,1009.09,-2.32,2.32,1.22,0,0,10
-25.63,-21.42,1012.39,-3.91,1.71,-2.93,0,0,10
-25.63,-21.42,1012.39,-4.03,-1.95,-5.98,0,0,10
-25.09,-23.44,1014.4,2.56,0.85,-4.76,0,0,10
-25.09,-23.44,1014.4,6.71,5.98,-3.3,0,0,10
-26.18,-21.97,1011.47,-5.98,-1.1,-11.84,0,0,10
-26.18,-21.97,1011.47,3.3,-4.64,-5.49,0,0,10
-26.37,-21.42,1011.47,-0.49,-5.86,0.24,0,0,10
-26.37,-21.42,1011.47,1.71,2.44,6.84,0,0,10
-26.37,-19.78,1011.11,1.1,0.61,1.83,0,0,10
-26.37,-19.78,1011.11,1.59,3.42,9.64,0,0,10
-24.17,-17.4,1012.76,-1.34,4.03,1.46,0,0,9
-24.17,-17.4,1012.76,-6.96,8.54,-0.85,0,0,10
-25.82,-20.87,1011.66,-2.93,-0.73,4.88,0,0,11
-25.82,-20.87,1011.66,-1.95,4.52,5.37,0,0,10
-28.2,-20.51,1010.56,-3.91,2.44,0.12,0,0,10
-28.2,-20.51,1010.56,2.93,3.42,3.91,0,0,10
-27.83,-20.14,1012.39,-0.98,1.34,1.95,0,0,10
-27.83,-20.14,1012.39,-0.37,-2.93,-4.39,0,0,10
-29.11,-23.25,1010.74,2.56,-3.54,2.56,0,0,10
-29.11,-23.25,1010.74,4.52,-2.32,-0.61,0,0,10
-26.37,-23.44,1009.83,-1.1,-6.84,-13.43,0,0,10
-26.37,-23.44,1009.83,0,-4.52,0.85,0,0,10
-27.1,-24.35,1008,1.46,-3.54,3.17,0,0,10
-27.1,-24.35,1008,-6.71,-1.1,-2.44,0,0,10
-28.75,-22.71,1008.36,-0.73,0.37,0.49,0,0,10
-28.75,-22.71,1008.36,-0.37,-3.42,8.42,0,0,9
-27.83,-22.89,1010.38,-5.25,3.42,-2.44,0,0,10
-30.94,-26.18,1010.38,-0.49,6.23,7.08,0,0,10
-30.94,-26.18,1010.38,1.22,0.49,-0.24,0,0,10
-30.21,-22.89,1010.74,-2.81,-0.85,2.32,0,0,10
-30.21,-22.89,1010.74,-0.73,-1.46,0.61,0,0,11
-30.21,-22.52,1009.83,1.1,-1.71,0.12,0,0,10
-30.21,-22.52,1009.83,-0.49,-1.1,-6.23,0,0,10
-30.21,-22.52,1009.83,4.76,0.37,-5.37,0,0,10
-30.21,-22.52,1009.83,-4.64,1.95,-3.05,0,0,10
-30.21,-22.52,1009.83,1.22,4.03,3.17,0,0,10
-30.21,-22.52,1009.83,-2.56,3.05,-1.34,0,0,10
-27.65,-25.09,1010.93,-6.96,2.2,3.3,0,0,10
-27.65,-25.09,1010.93,2.2,5.86,-11.84,0,0,10
-28.2,-21.97,1009.64,-0.85,0,3.42,0,0,11
-28.2,-21.97,1009.64,-5.13,3.54,-4.52,0,0,10
-27.47,-24.17,1011.11,-3.17,-1.59,-0.85,0,0,10
-27.47,-24.17,1011.11,2.44,5.62,-0.12,0,0,10
-27.83,-23.99,1010.19,-0.37,6.71,-5.49,0,0,10
-27.83,-23.99,1010.19,5.74,0.12,-5.49,0,0,10
-27.1,-24.35,1011.11,-2.2,0,3.42,0,0,10
-27.1,-24.35,1011.11,2.56,5.13,4.27,0,0,10
-26,-24.35,1010.38,-8.79,0.73,-1.46,0,0,10
-26,-24.35,1010.38,-5.86,0.61,-6.59,0,0,10
-24.72,-23.07,1008.36,-7.69,0,-3.17,0,0,10
-24.72,-23.07,1008.36,4.03,-2.2,-3.66,0,0,10
-26,-23.25,1010.01,-0.73,1.95,4.88,0,0,10
-26,-23.25,1010.01,2.2,-0.24,2.56,0,0,10
-28.38,-23.07,1011.84,-2.56,-1.34,-4.52,0,0,10
-28.38,-23.07,1011.84,-1.59,-5,-0.49,0,0,9
-26.37,-21.97,1009.46,-4.64,-0.49,-3.66,0,0,10
-26.37,-21.97,1009.46,-0.24,3.54,8.54,0,0,10
-27.28,-23.62,1008.91,-0.98,-1.34,-6.35,0,0,10
-27.28,-23.62,1008.91,1.83,-0.24,-3.05,0,0,10
-26.73,-23.25,1010.19,-7.69,-3.91,-1.95,0,0,10
-26.73,-23.25,1010.19,5.37,-5.62,-1.1,0,0,10
-27.65,-21.79,1011.11,-0.61,3.66,2.2,0,0,10
-27.65,-21.79,1011.11,0,5.49,-11.11,0,0,10
-29.85,-21.97,1009.28,-2.08,2.56,2.93,0,0,10
-29.85,-21.97,1009.28,-7.32,1.71,-1.46,0,0,10
-26.73,-23.62,1010.01,-3.91,2.81,9.89,0,0,10
-26.73,-23.62,1010.01,3.78,-4.88,2.81,0,0,10
-26.55,-23.8,1013.12,4.88,2.44,5.98,0,0,10
-29.66,-25.27,1010.93,0.12,3.42,-9.64,0,0,10
-29.66,-25.27,1010.93,-5.49,1.59,-2.2,0,0,10
-27.28,-25.82,1010.93,-0.61,-1.1,4.52,0,0,10
-27.28,-25.82,1010.93,-5.37,0.49,-5,0,0,10
-26.73,-21.24,1011.11,-4.15,-2.08,-0.98,0,0,10
-26.73,-21.24,1011.11,4.76,0,4.39,0,0,10
-28.56,-21.79,1011.47,0.61,-4.39,-3.91,0,0,10
-28.56,-21.79,1011.47,5.25,-3.17,-8.42,0,0,10
-28.56,-21.79,1011.47,0.49,-5.25,14.04,0,0,10
-28.56,-21.79,1011.47,-3.42,-5.62,-3.54,0,0,10
-25.27,-21.42,1012.39,1.95,0.12,-1.83,0,0,10
-25.27,-21.42,1012.39,0.85,0.85,-0.12,0,0,10
-28.93,-22.16,1010.01,2.69,3.05,-3.78,0,0,10
-28.93,-22.16,1010.01,0.85,0.24,-0.85,0,0,10
-29.66,-23.62,1009.46,2.32,3.05,-0.49,0,0,10
-29.66,-23.62,1009.46,-3.66,-0.12,-6.84,0,0,10
-27.83,-25.09,1009.64,4.03,3.42,1.34,0,0,10
-27.83,-25.09,1009.64,-3.3,0.49,2.93,0,0,10
-28.02,-25.09,1009.28,-2.69,-1.71,-10.99,0,0,10
-28.02,-25.09,1009.28,-4.03,-4.15,2.2,0,0,10
-24.9,-24.35,1009.64,-2.93,3.17,-1.1,0,0,10
-24.9,-24.35,1009.64,-6.23,-4.27,4.39,0,0,10
-23.8,-23.44,1011.29,1.46,1.46,4.39,0,0,10
-23.8,-23.44,1011.29,-5.13,5.13,-2.44,0,0,10
-26.92,-21.61,1012.21,-0.98,1.71,0.73,0,0,10
-26.92,-21.61,1012.21,-2.69,-3.05,2.56,0,0,10
-27.1,-22.34,1011.66,-1.46,2.81,6.84,0,0,10
-27.1,-22.34,1011.66,2.81,6.47,1.34,0,0,10
-25.09,-20.51,1011.84,2.44,0.85,6.1,0,0,10
-25.09,-20.51,1011.84,10.01,-0.85,2.93,0,0,10
-27.1,-21.06,1009.64,2.81,3.42,-4.39,0,0,10
-27.1,-21.06,1009.64,3.78,3.66,-2.44,0,0,10
-28.38,-21.97,1011.11,3.54,-2.81,-8.42,0,0,11
-28.38,-21.97,1011.11,-0.61,-7.2,-4.03,0,0,10
-29.48,-21.97,1011.11,3.91,-2.69,4.64,0,0,10
-29.48,-21.97,1011.11,2.2,-3.3,1.83,0,0,10
-28.2,-24.17,1008,1.59,-3.3,-3.54,0,0,10
-28.2,-24.17,1008,5.62,0.49,17.09,0,0,10
-29.48,-23.25,1010.01,2.32,0.61,-4.52,0,0,10
-29.48,-23.25,1010.01,0.61,-3.42,2.81,0,0,10
-28.75,-23.62,1010.93,-0.73,1.71,4.88,0,0,10
-26.92,-22.89,1011.11,4.15,-0.61,7.57,0,0,10
-26.92,-22.89,1011.11,3.54,-1.59,-2.69,0,0,10
-29.48,-23.62,1011.84,1.46,-0.85,5.74,0,0,10
-29.48,-23.62,1011.84,-1.95,1.83,-1.95,0,0,10
-25.82,-22.34,1012.76,-0.24,5,3.66,0,0,10
-25.82,-22.34,1012.76,-1.83,0.61,-2.08,0,0,10
-28.38,-23.07,1012.76,-0.73,0.73,-6.59,0,0,10
-28.38,-23.07,1012.76,1.83,-3.05,2.2,0,0,10
-28.38,-23.07,1012.76,5.62,3.17,2.93,0,0,10
-28.38,-23.07,1012.76,-2.93,1.71,3.42,0,0,10
-25.63,-19.96,1013.85,-2.81,-3.66,-0.98,0,0,10
-25.63,-19.96,1013.85,2.32,3.42,-4.64,0,0,10
-27.1,-20.14,1010.74,3.66,-4.03,4.76,0,0,10
-27.1,-20.14,1010.74,2.69,1.59,-9.28,0,0,10
-26.18,-24.72,1011.47,0.24,1.22,-1.71,0,0,10
-26.18,-24.72,1011.47,4.76,-2.81,-6.1,0,0,10
-25.63,-23.62,1012.76,0.73,5.25,-6.1,0,0,10
-25.63,-23.62,1012.76,-1.95,-1.34,1.1,0,0,10
-26.73,-22.16,1010.01,1.34,5.62,-4.39,0,0,10
-26.73,-22.16,1010.01,0.73,-7.57,2.44,0,0,10
-25.82,-23.8,1008.18,3.3,5.13,6.1,0,0,9
-25.82,-23.8,1008.18,-4.15,-0.61,2.69,0,0,9
-28.56,-22.52,1008.36,2.32,-1.83,0.49,0,0,10
-28.56,-22.52,1008.36,-2.32,0.37,5.13,0,0,10
-29.11,-19.59,1009.28,-0.49,-0.98,-9.52,0,0,10
-29.11,-19.59,1009.28,1.83,0.85,3.05,0,0,10
-25.82,-21.79,1010.56,-0.73,-10.62,-0.61,0,0,10
-25.82,-21.79,1010.56,-1.22,-1.83,-1.59,0,0,9
-24.9,-22.16,1012.57,1.46,-6.96,0.61,0,0,10
-24.9,-22.16,1012.57,1.71,-1.22,-3.78,0,0,10
-26.37,-21.06,1012.39,2.69,-2.69,7.32,0,0,10
-26.37,-21.06,1012.39,-3.66,4.52,-9.28,0,0,10
-27.1,-22.71,1009.83,-1.59,0.49,-1.95,0,0,10
-27.1,-22.71,1009.83,-2.2,-3.3,-2.32,0,0,10
-28.2,-22.52,1010.74,-3.91,-0.61,2.81,0,0,10
-28.2,-22.52,1010.74,-3.42,0.73,-13.55,0,0,10
-27.1,-23.44,1012.76,-3.05,-1.71,-3.42,0,0,10
-27.1,-23.44,1012.76,-0.98,-0.37,-1.59,0,0,10
-25.63,-21.97,1012.76,-3.42,4.03,-2.32,0,0,9
-25.63,-21.97,1012.76,0.24,-0.98,3.42,0,0,11
-28.38,-21.42,1013.31,-2.56,0.73,-9.89,0,0,10
-29.3,-23.62,1013.12,9.89,4.64,-0.24,0,0,10
-29.3,-23.62,1013.12,0.37,-4.52,1.95,0,0,10
-28.02,-22.52,1010.74,-1.59,2.32,3.54,1,0,10
-28.02,-22.52,1010.74,0.85,5.98,3.42,0,0,10
-28.93,-22.52,1009.83,3.3,9.03,2.2,0,0,10
-28.93,-22.52,1009.83,4.39,7.2,1.71,0,0,10
-29.48,-22.16,1011.84,-2.69,-0.37,-4.64,0,0,10
-29.48,-22.16,1011.84,0.37,-2.56,-2.08,0,0,10
-29.48,-22.16,1011.84,-3.54,-1.95,-3.17,0,0,10
-29.48,-22.16,1011.84,1.71,0.49,-2.69,0,0,10
-29.3,-21.24,1012.21,3.3,4.76,-4.76,0,0,10
-29.3,-21.24,1012.21,0,5.98,11.84,0,0,10
-27.65,-20.51,1010.38,3.3,6.96,1.1,0,0,10
-27.65,-20.51,1010.38,-1.46,6.71,-3.42,0,0,9
-25.45,-23.8,1010.56,0,3.05,6.1,0,0,10
-25.45,-23.8,1010.56,4.03,3.3,0,0,0,10
-27.28,-23.62,1011.29,1.95,-1.1,-7.81,-1,0,9
-27.28,-23.62,1011.29,3.3,2.2,-3.3,0,0,10
-25.82,-19.41,1011.84,-2.93,-3.05,-3.91,0,0,10
-25.82,-19.41,1011.84,0.37,2.32,14.16,0,0,10
-26.73,-22.52,1011.29,0,5.13,-5.74,0,0,10
-26.73,-22.52,1011.29,-1.22,0.98,0,0,0,10
-27.83,-21.06,1010.19,-1.95,2.32,7.81,0,0,10
-27.83,-21.06,1010.19,1.83,4.76,5.49,0,0,10
-26.37,-19.04,1011.66,1.83,-0.98,0.49,0,0,10
-26.37,-19.04,1011.66,-0.98,1.95,-0.24,0,0,10
-26.18,-19.23,1012.57,6.71,-0.12,6.23,0,0,10
-26.18,-19.23,1012.57,5.74,0,-0.85,0,0,10
-23.44,-20.51,1010.19,-8.67,3.42,-9.64,0,0,10
-23.44,-20.51,1010.19,-1.1,2.93,-9.52,0,0,10
-28.02,-19.23,1011.47,2.2,4.27,2.2,0,0,10
-28.02,-19.23,1011.47,0.61,-0.85,4.27,0,0,10
-29.11,-20.87,1013.67,8.06,6.1,4.88,0,0,10
-29.11,-20.87,1013.67,0.85,-0.85,-2.44,0,0,10
-27.83,-19.78,1011.47,-2.93,2.32,-6.84,0,0,10
-27.83,-19.78,1011.47,0.98,-0.24,-3.66,0,0,10
-27.1,-20.87,1012.57,-0.12,-1.1,-4.76,0,0,10
-27.1,-20.87,1012.57,-4.03,5.62,-1.59,0,0,10
-27.1,-21.97,1013.67,-0.37,-3.17,-4.15,0,0,11
-27.1,-21.97,1013.67,0.85,0.61,2.93,0,0,10
-26.18,-20.51,1011.11,0,4.76,-2.81,0,0,10
-26.18,-20.51,1011.11,-1.95,-4.52,2.44,0,0,10
-26.18,-20.51,1011.11,1.95,-0.49,-3.3,0,0,10
-26.55,-21.42,1011.84,-2.2,-1.34,-4.88,0,0,10
-26.55,-21.42,1011.84,-1.22,0.98,-0.49,0,0,10
-28.93,-21.61,1011.29,-4.39,-0.37,-0.61,0,0,10
-28.93,-21.61,1011.29,-1.95,0.73,-7.08,0,0,10
-29.66,-21.61,1012.02,-1.1,6.23,1.46,0,0,10
-29.66,-21.61,1012.02,-0.73,-3.54,0.49,0,0,10
-29.66,-21.61,1012.02,-0.73,1.83,-0.12,0,0,10
-29.66,-21.61,1012.02,-1.1,-1.83,4.03,0,0,10
-27.1,-23.07,1009.83,-7.2,-5.49,-9.89,0,0,10
-27.1,-23.07,1009.83,-0.61,-9.64,-4.76,0,0,10
-26.55,-20.14,1009.09,-4.88,-5.37,-4.03,0,0,11
-26.55,-20.14,1009.09,-1.34,-4.88,-4.88,0,0,10
-28.75,-22.89,1009.83,5.74,0.37,-0.73,0,0,10
-28.75,-22.89,1009.83,-0.24,-0.24,-0.98,0,0,9
-28.38,-23.99,1009.64,-0.73,-3.91,-0.37,0,0,10
-28.38,-23.99,1009.64,4.27,-0.49,-4.52,0,0,10
-27.1,-20.69,1012.21,-1.83,-1.95,6.23,0,0,10
-27.1,-20.69,1012.21,3.05,-5.25,-0.37,0,0,10
-29.3,-21.97,1011.47,8.3,-4.15,0.37,0,0,10
-29.3,-21.97,1011.47,-5.74,-7.2,-11.35,0,0,10
-27.1,-19.96,1011.29,1.46,3.42,-0.98,0,0,11
-27.1,-19.96,1011.29,3.05,3.05,-5.13,0,0,9
-27.1,-19.59,1013.49,2.56,4.27,3.54,0,0,10
-27.1,-19.59,1013.49,2.32,3.78,7.2,0,0,11
-24.9,-18.86,1011.47,0.12,3.54,3.66,0,0,10
-24.9,-18.86,1011.47,-4.52,-2.08,2.08,0,0,10
-24.17,-19.41,1010.93,-3.05,1.22,-7.57,0,0,10
-24.17,-19.41,1010.93,0,-4.88,-2.69,0,0,10
-26.55,-18.68,1011.47,1.34,0.37,0.49,0,0,10
-26.55,-18.68,1011.47,-3.78,1.22,1.34,0,0,10
-26.55,-18.68,1011.47,-0.24,0.49,-3.3,0,0,10
-26.55,-18.68,1011.47,0,-0.85,1.83,0,0,10
-25.27,-18.68,1010.56,3.78,-2.08,9.28,0,0,10
-25.27,-18.68,1010.56,6.1,-0.85,3.17,0,0,10
-28.2,-22.89,1010.56,4.64,4.64,-1.71,0,0,10
-28.2,-22.89,1010.56,4.64,-3.91,-6.47,0,0,10
-29.11,-21.24,1010.93,6.84,-3.42,6.84,0,0,10
-29.11,-21.24,1010.93,0.98,0.61,-10.25,0,0,10
-28.02,-20.87,1012.02,-2.93,-1.59,1.46,0,0,10
-28.02,-20.87,1012.02,-2.93,-6.71,4.27,0,0,9
-28.02,-20.87,1012.02,-3.3,3.78,0.85,0,0,10
-24.9,-24.72,1010.01,-0.61,-3.42,-4.15,0,0,10
-24.9,-24.72,1010.01,3.17,-4.27,7.32,0,0,10
-26,-21.24,1011.66,-4.88,6.71,4.88,0,0,10
-26,-21.24,1011.66,9.16,-0.61,7.81,0,0,10
-26.92,-22.34,1011.66,3.91,-0.73,4.03,0,0,10
-26.92,-22.34,1011.66,0.12,4.39,-4.52,0,0,10
-26.92,-22.34,1011.66,8.3,2.56,6.35,0,0,10
-26.92,-22.34,1011.66,-1.59,1.46,-1.71,0,0,10
-27.47,-25.82,1008.54,-2.56,1.34,-6.47,0,0,10
-27.47,-25.82,1008.54,-6.59,-1.95,6.1,0,0,10
-27.65,-23.99,1008.73,-1.1,2.81,0.73,0,0,10
-27.65,-23.99,1008.73,-2.69,0,-9.16,0,0,10
-26,-23.8,1009.64,-6.96,-2.81,0.61,0,0,10
-26,-23.8,1009.64,2.93,0.12,8.18,0,0,10
-26.92,-24.54,1009.28,-0.24,-2.81,4.03,0,0,10
-26.92,-24.54,1009.28,-0.12,3.42,2.08,0,0,10
-26.37,-25.09,1010.74,-0.37,0.12,4.52,0,0,10
-26.37,-25.09,1010.74,1.22,5.37,1.1,0,0,9
-28.75,-24.35,1009.28,-3.54,1.22,5.98,0,0,10
-28.75,-24.35,1009.28,-1.34,1.22,0.85,0,0,10
-30.03,-22.52,1008.54,-1.22,-5.62,-1.95,0,0,10
-30.03,-22.52,1008.54,1.71,5.98,3.54,0,0,10
-27.65,-23.07,1011.66,2.32,5.62,9.28,0,0,10
-27.65,-23.07,1011.66,-3.54,8.91,6.35,0,0,10
-26.92,-21.79,1009.83,1.34,-1.83,-0.24,0,0,10
-26.92,-21.79,1009.83,-0.73,-1.95,-0.85,0,0,10
-28.02,-21.61,1010.19,1.46,1.46,-5.62,0,0,10
-28.02,-21.61,1010.19,-2.56,-2.56,1.83,0,0,10
-28.02,-22.71,1011.29,7.81,3.42,-0.61,0,0,11
-28.02,-22.71,1011.29,5.98,2.2,2.69,0,0,10
-28.02,-22.71,1011.29,1.1,-6.96,-4.64,0,0,10
-28.02,-22.71,1011.29,-3.05,1.83,4.03,0,0,11
-27.83,-22.16,1010.93,-2.44,-1.71,7.2,0,0,10
-27.83,-22.16,1010.93,3.17,-0.85,0.37,0,0,10
-28.2,-21.42,1008.91,0.73,3.91,-1.59,0,0,10
-28.2,-21.42,1008.91,3.91,0,-6.96,0,0,10
-25.09,-19.78,1011.47,-2.32,-1.1,-2.81,0,0,10
-25.09,-19.78,1011.47,5.25,-1.1,4.52,0,0,10
-23.99,-23.07,1010.56,-3.17,2.56,-2.2,0,0,10
-23.99,-23.07,1010.56,-0.98,3.42,4.27,0,0,11
-24.9,-22.16,1010.56,-0.49,3.05,5.62,0,0,10
-26.55,-21.61,1011.47,2.56,-1.22,-0.73,0,0,10
-26.55,-21.61,1011.47,2.44,2.56,-0.61,0,0,10
-26.37,-23.25,1012.57,-6.1,-3.05,-3.54,0,0,10
-26.37,-23.25,1012.57,3.54,-2.08,-9.4,0,0,10
-26.73,-24.17,1013.49,-1.34,-0.61,3.3,0,0,10
-26.73,-24.17,1013.49,4.03,-3.17,1.95,0,0,10
-26.73,-24.17,1013.49,-5.37,1.46,-2.81,0,0,11
-26.73,-24.17,1013.49,0.98,-0.24,3.91,0,0,10
-28.02,-22.89,1009.83,-6.96,4.76,-7.45,0,0,10
-28.02,-22.89,1009.83,-3.91,-2.93,-6.71,0,0,10
-29.11,-23.25,1010.01,0.12,0.12,-0.73,0,0,10
-29.11,-23.25,1010.01,-6.84,1.71,-1.34,0,0,10
-27.1,-21.42,1010.01,7.45,0.12,4.88,0,0,10
-27.1,-21.42,1010.01,4.52,1.22,-4.03,0,0,10
-28.38,-21.61,1011.84,2.2,3.66,0.73,0,0,10
-28.38,-21.61,1011.84,2.69,0,-8.3,0,0,10
-29.66,-22.52,1011.66,1.34,0,4.52,0,0,10
-29.66,-22.52,1011.66,4.64,-5.25,-3.54,0,0,10
-26.55,-21.97,1009.46,0.85,7.45,8.42,0,0,11
-26.55,-21.97,1009.46,2.93,-0.85,-0.98,0,0,10
-26.37,-17.76,1011.84,-3.05,-2.2,-4.03,0,0,10
-26.37,-17.76,1011.84,-2.93,1.71,-5.62,0,0,10
-27.83,-21.24,1010.56,5,5.98,-4.03,0,0,10
-27.83,-21.24,1010.56,4.64,-1.59,5.37,0,0,10
-29.3,-20.51,1011.47,-1.95,-2.56,3.42,0,0,10
-29.3,-20.51,1011.47,5.25,-1.34,-9.28,0,0,10
-25.82,-19.78,1012.21,-1.22,1.1,7.08,0,0,10
-25.82,-19.78,1012.21,0.85,5,13.18,0,0,10
-25.82,-18.49,1011.11,-4.27,0.37,-3.54,0,0,10
-25.82,-18.49,1011.11,-0.85,4.52,-7.2,0,0,10
-25.82,-18.49,1011.11,-2.32,-1.46,-12.21,0,0,10
-25.82,-18.49,1011.11,0.85,-5.86,-11.6,0,0,10
-24.54,-19.59,1012.39,0.12,3.3,1.59,0,0,10
-24.54,-19.59,1012.39,0.85,0.37,1.46,0,0,10
-25.82,-20.87,1011.47,-1.71,-6.47,-6.96,0,0,10
-25.82,-20.87,1011.47,-8.06,-1.71,1.83,0,0,10
-26.37,-24.72,1010.38,-2.69,1.46,0.98,0,0,10
-26.37,-24.72,1010.38,-6.96,-5.86,2.93,0,0,10
-26.55,-22.89,1012.94,6.23,-6.96,4.15,0,0,10
-26.55,-22.89,1012.94,1.46,4.39,1.83,0,0,10
-30.21,-24.35,1011.66,3.17,5.49,-1.46,0,0,10
-30.4,-23.62,1010.38,-1.1,-3.54,-1.59,0,0,10
-30.4,-23.62,1010.38,3.78,-3.3,1.34,0,0,10
-29.66,-24.9,1009.64,-4.03,-0.61,-4.15,0,0,10
-29.66,-24.9,1009.64,1.22,5.74,-2.44,0,0,10
-28.75,-23.62,1010.01,1.71,2.44,6.59,0,0,9
-28.75,-23.62,1010.01,3.54,-3.05,7.08,0,0,10
-28.75,-23.62,1010.01,0.61,-1.71,0,0,0,10
-28.75,-23.62,1010.01,3.3,2.81,-2.93,0,0,10
-28.75,-23.62,1010.01,-2.93,-2.2,0,0,0,10
-28.75,-23.62,1010.01,-3.05,-0.98,2.69,0,0,10
-28.75,-21.06,1011.47,-2.69,-2.44,-5.49,0,0,10
-28.75,-21.06,1011.47,5.74,1.59,9.03,0,0,10
-28.56,-23.07,1013.12,-4.03,-2.32,-1.71,0,0,10
-28.56,-23.07,1013.12,-10.25,-4.15,-3.42,0,0,11
-27.1,-22.71,1011.66,-8.54,-0.24,-1.83,0,0,10
-27.1,-22.71,1011.66,2.2,1.71,6.59,0,0,10
-29.3,-19.41,1012.39,0.98,-1.83,1.83,0,0,10
-29.3,-19.41,1012.39,-4.27,1.34,-1.46,0,0,10
-26.37,-19.59,1010.01,-1.22,-3.17,2.44,0,0,10
-26.37,-19.59,1010.01,-2.56,2.2,-5.98,0,0,10
-27.65,-21.24,1011.11,4.88,4.15,0.12,0,0,10
-27.65,-21.24,1011.11,-1.46,-1.59,0.61,0,0,10
-28.93,-19.23,1012.94,2.44,1.1,1.83,0,0,10
-28.93,-19.23,1012.94,1.1,-0.85,6.71,0,0,11
-27.1,-22.89,1013.67,1.83,-0.24,-3.54,0,0,10
-27.1,-22.89,1013.67,-5.86,3.91,0.98,0,0,10
-27.28,-22.71,1010.74,1.95,-1.1,8.42,0,0,9
-27.28,-22.71,1010.74,1.71,4.88,-3.05,0,0,10
-26.55,-21.42,1012.02,-5.13,3.17,-3.54,0,0,10
-26.55,-21.42,1012.02,-0.49,1.95,1.34,0,0,11
-25.63,-19.96,1009.46,-1.95,1.71,10.25,0,0,10
-25.63,-19.96,1009.46,1.83,2.93,-4.64,0,0,10
-27.47,-23.8,1011.66,-0.49,0.24,6.35,0,0,10
-27.47,-23.8,1011.66,3.78,-7.45,16.24,0,0,11
-26.55,-21.79,1013.12,-0.24,3.91,-0.37,0,0,10
-26.55,-21.79,1013.12,-3.91,-3.78,1.34,0,0,10
-28.56,-21.61,1010.01,-0.37,0.61,3.66,0,0,9
-28.56,-21.61,1010.01,8.18,-2.69,9.16,0,0,10
-29.48,-22.34,1007.81,0.85,-4.76,-5.62,0,0,10
-29.48,-22.34,1007.81,4.76,-4.76,4.27,0,0,10
-27.47,-21.97,1008.36,-5.49,3.05,-2.56,0,0,9
-27.65,-25.45,1009.83,2.2,-4.03,-0.24,0,0,10
-27.65,-25.45,1009.83,-2.93,1.83,3.3,0,0,10
-27.65,-24.35,1010.56,0.49,-3.78,5.98,0,0,10
-27.65,-24.35,1010.56,2.08,-5.86,-2.69,0,0,9
-28.75,-24.54,1010.56,-3.3,-0.98,-6.23,0,0,10
-28.75,-24.54,1010.56,-4.52,1.59,-0.98,0,0,10
-28.75,-24.54,1010.56,1.46,-7.2,0,0,0,11
-28.75,-24.54,1010.56,1.22,4.39,-3.42,0,0,10
-28.75,-24.54,1010.56,-1.83,2.56,-1.95,0,0,10
-28.75,-24.54,1010.56,-7.69,1.71,4.64,0,0,10
-28.02,-22.89,1009.09,6.71,2.32,6.96,0,0,10
-28.02,-22.89,1009.09,0.73,4.52,-4.03,0,0,10
-29.3,-25.45,1010.01,-2.56,1.46,0.37,0,0,10
-29.3,-25.45,1010.01,-1.95,1.46,-2.2,0,0,10
-29.11,-24.17,1008.36,-5.74,-0.24,-0.85,0,0,10
-29.11,-24.17,1008.36,-5.25,-3.42,0.85,0,0,11
-26.18,-22.34,1010.74,0.98,1.59,0.49,0,0,10
-26.18,-22.34,1010.74,3.42,-2.2,0.24,0,0,10
-28.75,-20.32,1011.11,5.13,4.15,6.1,0,0,10
-28.75,-20.32,1011.11,2.08,-4.52,4.52,0,0,10
-25.82,-23.99,1009.09,-0.98,1.46,1.83,0,0,10
-25.82,-23.99,1009.09,2.81,5.25,0.73,0,0,10
-25.63,-22.52,1011.66,-1.1,-3.66,-3.3,0,0,10
-25.63,-22.52,1011.66,-0.61,1.1,-2.08,0,0,10
-25.45,-23.8,1010.01,8.06,-0.61,1.83,0,0,10
-25.45,-23.8,1010.01,2.32,-3.05,7.57,0,0,9
-24.9,-21.61,1009.64,3.3,4.76,-0.73,0,0,10
-24.9,-21.61,1009.64,-3.54,-1.95,-4.52,0,0,11
-26.73,-21.42,1010.19,1.34,-2.69,6.71,0,0,10
-26.73,-21.42,1010.19,2.08,3.78,4.88,0,0,10
-26.55,-21.97,1011.47,3.42,0.37,-7.81,0,0,10
-26.55,-21.97,1011.47,-0.98,-7.32,4.88,0,0,10
-28.02,-22.16,1010.93,-2.44,-4.64,1.59,0,0,10
-28.02,-22.16,1010.93,0.85,4.76,-6.23,0,0,10
-27.65,-21.79,1010.56,-4.88,0.61,1.22,0,0,10
-27.65,-21.79,1010.56,4.76,5.74,-3.17,0,0,10
-26.55,-21.79,1010.01,-3.05,-0.12,2.69,0,0,10
-26.55,-21.79,1010.01,3.78,5.74,1.71,0,0,10
-26.73,-21.79,1010.19,5.74,0.12,4.03,0,0,10
-26.73,-21.79,1010.19,-4.52,-4.15,-1.59,0,0,10
-27.65,-20.51,1009.83,0.73,-0.73,-0.24,0,0,10
-28.75,-22.52,1012.21,4.52,1.34,7.81,0,0,10
-28.75,-22.52,1012.21,-4.15,-3.54,-0.37,0,0,11
-29.85,-23.44,1009.64,-4.88,-4.15,-0.98,0,0,11
-29.85,-23.44,1009.64,3.17,0.85,-2.44,0,0,9
-26.55,-22.71,1012.21,2.32,-3.54,-7.93,0,0,10
-26.55,-22.71,1012.21,4.03,1.59,1.34,0,0,11
-26.55,-22.71,1012.21,-0.12,1.1,-6.59,0,0,10
-26.55,-22.71,1012.21,5.13,-1.71,4.03,0,0,10
-26.55,-22.71,1012.21,-2.32,1.71,-4.52,1,-1,10
-26.55,-22.71,1012.21,9.03,1.22,2.81,0,0,10
-27.28,-21.61,1011.84,-3.3,0.73,-0.37,0,0,10
-27.28,-21.61,1011.84,1.83,3.3,4.03,0,0,10
-26.55,-22.16,1010.38,2.44,0.24,0.37,0,0,10
-26.55,-22.16,1010.38,-3.3,-5.37,1.83,0,1,10
-26.18,-21.24,1010.01,5.37,4.88,0.73,0,0,10
-26.18,-21.24,1010.01,1.1,-2.2,0.98,0,0,10
-27.1,-21.06,1010.56,3.66,1.22,-3.17,0,0,9
-27.1,-21.06,1010.56,0.98,5,-6.71,-1,0,10
-26.37,-22.89,1011.84,1.83,-2.2,1.83,0,0,10
-26.37,-22.89,1011.84,5.25,1.59,16.85,0,0,10
-27.28,-21.61,1010.01,-0.12,2.56,-5.62,0,0,10
-27.28,-21.61,1010.01,3.91,-2.56,-4.52,0,0,10
-26.55,-20.14,1012.02,0.37,2.08,1.95,0,0,10
-26.55,-20.14,1012.02,2.32,-3.05,0.98,0,0,10
-26.18,-21.42,1011.29,-0.98,1.46,2.08,0,0,10
-26.18,-21.42,1011.29,-6.47,1.46,2.56,0,0,10
-27.65,-22.16,1012.39,-3.17,1.71,1.34,0,0,10
-27.65,-22.16,1012.39,0,-6.23,-5.74,0,0,10
-26.55,-22.16,1011.47,-4.03,5.49,1.34,0,0,10
-26.55,-22.16,1011.47,-5.74,-3.17,3.42,0,0,10
-25.45,-20.32,1010.93,-9.64,-2.2,-6.59,0,0,10
-25.45,-20.32,1010.93,0.61,-7.45,3.42,0,0,10
-26.18,-22.89,1013.85,1.83,-1.83,-2.2,0,0,10
-26.18,-22.89,1013.85,-5.86,-3.17,1.59,0,0,10
-26.55,-20.14,1011.47,-0.12,2.08,-2.81,0,0,9
-26.55,-20.14,1011.47,0.61,6.23,-1.71,0,0,10
-27.28,-21.97,1010.38,3.17,2.32,-7.69,0,0,10
-27.28,-21.97,1010.38,0,3.05,-4.76,0,0,10
-26.55,-23.8,1011.66,2.81,-0.98,0.98,0,0,10
-26.55,-23.8,1011.66,-3.17,0.98,3.05,0,0,10
-26.37,-22.34,1011.84,-0.61,-2.44,0,0,0,10
-23.8,-21.06,1010.19,3.66,3.78,-4.88,0,0,11
-23.8,-21.06,1010.19,1.59,13.67,5.86,0,0,10
-25.27,-23.07,1009.28,-2.32,6.35,0.98,0,0,10
-25.27,-23.07,1009.28,0,-6.1,-0.85,0,0,10
-27.83,-22.16,1009.09,0.12,0,0.61,0,0,10
-27.83,-22.16,1009.09,0.73,0.24,3.3,0,0,10
-29.85,-22.34,1008.54,-2.93,-1.83,-5.37,0,0,10
-29.85,-22.34,1008.54,-0.98,-1.83,0.12,0,0,10
-29.85,-22.34,1008.54,8.54,3.78,0.37,0,0,10
-29.85,-22.34,1008.54,-1.46,-0.49,-6.47,0,0,10
-28.75,-21.79,1011.29,-5.86,-0.12,-2.08,0,0,10
-28.75,-21.79,1011.29,-2.32,3.66,-0.37,0,0,10
-27.28,-25.63,1011.84,3.78,2.08,-6.71,0,0,10
-27.28,-25.63,1011.84,2.32,0.37,-1.83,0,0,10
-26.73,-23.44,1011.29,0.49,5.25,5.25,0,0,10
-26.73,-23.44,1011.29,-4.88,-6.1,-8.67,0,0,11
-27.47,-23.62,1010.38,-2.93,1.95,-9.28,0,0,10
-27.47,-23.62,1010.38,5.37,-1.83,-3.42,0,0,10
-26.92,-21.97,1008.54,-1.95,1.1,1.83,0,0,10
-26.92,-21.97,1008.54,-0.73,-2.56,-2.44,0,0,10
-25.27,-24.35,1009.83,-4.88,0,0.37,0,0,10
-25.27,-24.35,1009.83,-3.3,-1.22,0.37,0,0,10
-25.63,-24.72,1011.11,4.88,0.49,6.71,0,0,10
-25.63,-24.72,1011.11,-0.49,5.49,-0.49,0,0,10
-26.73,-23.25,1011.29,7.45,0.73,9.77,0,0,10
-26.73,-23.25,1011.29,3.3,1.71,1.71,0,0,10
-25.27,-22.52,1009.28,2.93,0.98,0.24,0,0,10
-25.27,-22.52,1009.28,10.86,-0.12,-1.95,0,0,11
-25.09,-24.35,1010.01,1.22,2.69,-0.49,0,0,10
-25.09,-24.35,1010.01,0.24,-5.49,-6.35,0,0,10
-27.65,-21.42,1010.56,2.56,1.71,-4.64,0,0,10
-27.65,-21.42,1010.56,-0.98,-5.49,5.25,0,0,10
-25.63,-20.69,1012.21,5.74,-5.62,-10.74,0,0,10
-25.63,-20.69,1012.21,4.64,1.1,6.84,0,0,10
-27.47,-22.52,1011.84,3.78,2.81,1.46,0,0,10
-27.47,-22.52,1011.84,-0.61,5.98,-0.37,0,0,10
-26,-19.59,1010.38,-2.93,2.32,-6.1,0,0,10
-26,-19.59,1010.38,1.71,3.66,1.34,0,0,10
-28.56,-20.51,1013.12,-3.3,6.23,-8.79,0,0,10
-28.56,-20.51,1013.12,-1.34,6.1,10.13,0,0,10
-26.55,-19.78,1012.39,-1.95,2.56,-5.37,0,0,10
-29.11,-21.24,1009.46,1.83,1.71,0.12,0,0,11
-29.11,-21.24,1009.46,2.44,-0.24,-1.95,0,0,10
-28.02,-22.34,1010.19,1.59,-1.34,-2.08,0,0,10
-28.02,-22.34,1010.19,-3.66,-5.13,0.37,0,0,11
-27.1,-20.69,1011.84,6.35,8.06,-0.24,0,0,10
-27.1,-20.69,1011.84,-6.59,-1.83,-1.83,0,0,10
-25.09,-21.06,1010.74,-1.95,1.34,-4.76,0,0,10
-25.09,-21.06,1010.74,-6.96,-0.37,-6.84,0,0,10
-25.09,-21.06,1010.74,2.69,-4.03,-7.32,0,0,10
-25.09,-21.06,1010.74,-4.15,-3.42,1.34,0,0,10
-27.65,-24.72,1010.56,3.17,1.71,7.2,0,0,10
-27.65,-24.72,1010.56,-2.2,4.03,-1.1,0,0,10
-28.02,-23.25,1011.47,1.71,7.2,-0.24,0,0,10
-28.02,-23.25,1011.47,3.17,1.22,3.3,0,0,10
-27.28,-21.79,1009.28,5.13,1.71,-2.32,0,0,11
-27.28,-21.79,1009.28,-5.25,-0.73,1.83,0,0,10
-26.55,-23.8,1007.63,0,-1.83,-1.95,0,0,9
-26.55,-23.8,1007.63,-2.81,-3.17,-0.85,0,0,10
-25.82,-22.71,1007.63,-3.66,-1.83,-3.05,0,0,9
-25.82,-22.71,1007.63,-6.84,-1.83,-6.1,0,0,11
-26.55,-21.79,1011.84,-0.37,-4.15,-13.79,0,0,9
-26.55,-21.79,1011.84,-0.37,1.83,3.66,0,0,10
-28.2,-19.23,1009.83,3.42,4.64,0.73,0,0,10
-28.2,-19.23,1009.83,-2.56,3.17,1.34,0,0,10
-27.65,-21.79,1009.28,-3.54,-5.62,-1.22,0,0,10
-27.65,-21.79,1009.28,1.34,2.08,-2.93,0,0,10
-28.2,-21.61,1009.64,0.85,-1.46,4.88,0,0,10
-28.2,-21.61,1009.64,-7.2,-2.08,-4.64,0,0,10
-29.66,-22.16,1009.28,3.3,2.93,0.85,0,0,10
-29.66,-22.16,1009.28,0.73,-2.08,-3.66,0,0,10
-28.2,-23.8,1008,-2.32,-2.81,-0.85,0,0,10
-28.2,-23.8,1008,0.24,-1.1,1.71,0,0,10
-26.55,-22.52,1008.54,10.01,-3.91,7.45,0,0,10
-26.55,-22.52,1008.54,2.32,0.12,2.56,0,0,10
-27.83,-20.51,1012.94,0,2.08,-1.83,0,0,10
-27.83,-20.51,1012.94,2.69,0.98,0,0,0,10
-26.37,-22.71,1009.64,1.22,-1.59,-6.96,0,0,10
-26.37,-22.71,1009.64,4.15,3.91,-7.57,0,0,10
-26.92,-21.79,1009.09,3.17,-1.71,4.88,0,0,10
-26.92,-21.79,1009.09,-9.16,-2.08,-8.54,0,0,10
-28.02,-23.62,1010.19,3.3,0.12,-5,0,0,10
-26.73,-23.25,1010.93,9.03,-1.83,1.1,0,0,10
-26.73,-23.25,1010.93,1.1,-4.39,5.98,0,0,10
-27.65,-23.62,1009.64,3.66,-4.15,2.69,0,0,10
-27.65,-23.62,1009.64,-0.61,3.66,-3.42,1,0,10
-28.38,-26.18,1009.83,-3.3,-0.37,3.66,0,0,10
-28.38,-26.18,1009.83,-0.98,6.71,3.54,0,0,10
-26.73,-24.72,1011.84,-0.61,0.12,-0.98,0,0,10
-26.73,-24.72,1011.84,5.98,-1.95,-1.22,0,0,10
-26.73,-24.72,1011.84,3.42,1.71,2.2,0,0,10
-26.73,-24.72,1011.84,-2.32,0.85,3.91,-1,0,10
-27.65,-23.8,1011.66,-2.56,-5.37,-2.2,0,0,10
-27.65,-23.8,1011.66,5.74,-1.83,-0.49,0,0,10
-27.28,-23.44,1012.02,-2.56,1.46,-3.78,0,0,10
-27.28,-23.44,1012.02,-4.88,-1.83,-5.62,0,0,10
-27.1,-23.99,1010.38,0.24,-4.15,-7.93,0,0,10
-27.1,-23.99,1010.38,-6.35,-0.12,5.13,0,0,10
-27.1,-24.17,1010.74,2.32,-2.56,-2.32,0,0,10
-27.1,-24.17,1010.74,3.05,1.46,2.56,0,0,11
-28.2,-23.07,1012.02,2.81,-2.69,-8.42,0,0,10
-28.2,-23.07,1012.02,-3.3,-3.91,0,0,0,10
-28.38,-21.24,1010.74,-2.44,-0.37,-2.32,0,0,10
-28.38,-21.24,1010.74,-3.3,-3.54,-4.39,0,0,10
-29.48,-18.13,1011.47,1.59,-1.83,6.59,0,0,10
-29.48,-18.13,1011.47,3.42,0.98,2.32,0,0,10
-26.37,-20.69,1012.39,-4.88,-1.83,9.89,0,0,10
-26.37,-20.69,1012.39,-3.91,0.85,-3.78,0,0,10
-26,-21.42,1011.66,0.85,-1.83,-3.3,0,0,11
-26,-21.42,1011.66,-4.76,-4.15,-1.83,0,0,10
-29.3,-21.79,1010.93,-7.08,1.22,2.56,0,0,10
-29.3,-21.79,1010.93,-1.1,-1.1,1.95,0,0,11
-26.37,-20.51,1010.56,-4.15,1.83,-3.54,0,0,10
-26.37,-20.51,1010.56,2.69,4.64,2.69,0,0,10
-25.09,-18.31,1012.76,-3.05,-0.24,-0.73,0,0,10
-25.09,-18.31,1012.76,0.37,2.08,-2.08,0,0,10
-26,-20.14,1011.66,6.84,-0.98,3.42,0,0,10
-26,-20.14,1011.66,-1.59,-4.64,6.1,0,0,10
-27.28,-20.51,1011.66,3.54,-4.15,6.71,0,0,10
-27.28,-20.51,1011.66,-1.34,4.52,4.76,0,0,10
-26,-21.42,1011.66,-5.13,0.37,0.37,0,0,10
-26,-21.42,1011.66,0.85,3.54,-2.44,0,0,10
-25.45,-21.61,1010.38,-5.25,5.13,-8.18,0,0,10
-25.45,-21.61,1010.38,11.23,2.08,1.71,0,0,10
-25.45,-21.61,1010.38,3.3,1.59,2.93,0,0,10
-27.65,-23.44,1010.01,-1.59,1.46,3.3,0,0,10
-27.65,-23.44,1010.01,0.37,0,3.05,0,0,10
-26,-23.8,1011.29,3.78,-1.95,-4.76,0,0,10
-26,-23.8,1011.29,5.86,-1.83,1.59,0,0,10
-28.75,-23.8,1013.85,-5.86,-0.24,4.03,0,0,10
-28.75,-23.8,1013.85,-1.59,-2.81,-5.37,0,0,10
-28.75,-23.8,1013.85,2.69,6.23,-6.84,0,0,10
-28.75,-23.8,1013.85,-4.64,-6.23,-4.39,1,-1,10
-27.28,-22.71,1012.39,2.81,0,-3.17,0,0,9
-27.28,-22.71,1012.39,-5.13,-3.3,-0.98,0,0,10
-28.02,-23.07,1012.02,0,-1.1,-4.88,0,0,10
-28.02,-23.07,1012.02,1.34,4.64,4.03,0,0,11
-28.2,-20.14,1011.47,1.83,11.47,-4.76,0,0,11
-28.2,-20.14,1011.47,-3.54,1.46,-3.66,0,0,10
-29.48,-23.25,1011.47,-7.69,1.34,6.47,0,0,10
-29.48,-23.25,1011.47,-0.98,-2.32,-5.74,0,0,9
-28.93,-21.97,1011.11,-9.89,-4.15,-2.81,0,0,10
-28.93,-21.97,1011.11,-0.73,1.46,-5.37,0,0,10
-27.65,-19.96,1012.02,5.37,0.61,-2.08,0,0,10
-27.65,-19.96,1012.02,4.76,3.66,-1.59,0,1,10
-27.47,-22.52,1010.38,-5.86,-2.44,-6.47,0,0,10
-27.47,-22.52,1010.38,-6.35,-9.64,-1.22,0,0,10
-28.56,-19.59,1009.83,-3.05,0,9.28,0,0,10
-28.56,-19.59,1009.83,3.66,-3.42,0.12,0,0,10
-29.85,-22.52,1008.91,4.27,-7.57,-2.69,0,0,11
-29.85,-22.52,1008.91,-2.93,-2.69,-4.27,0,0,10
-27.28,-23.44,1010.93,-4.64,0.24,4.64,0,0,11
-27.28,-23.44,1010.93,-0.49,-6.96,-7.32,0,0,10
-26.37,-23.62,1010.19,-0.49,-5,3.66,0,0,10
-26.37,-23.62,1010.19,-1.71,-3.78,-4.15,0,0,10
-26.37,-23.62,1010.19,1.1,2.56,1.83,0,0,10
-26.37,-23.62,1010.19,-0.85,0,-0.24,0,0,10
-25.82,-20.51,1010.56,0.24,4.39,-3.42,0,0,10
-25.82,-20.51,1010.56,-1.46,-3.05,-4.52,0,0,10
-25.63,-21.24,1009.83,3.91,2.2,4.39,0,0,10
-25.63,-21.24,1009.83,-6.47,0.61,-1.22,-1,0,10
-27.28,-21.97,1010.74,-5.62,0,-8.54,0,0,10
-27.28,-21.97,1010.74,4.03,-0.37,-1.83,0,0,10
-27.47,-23.62,1008.91,2.2,-2.2,-1.22,0,0,10
-27.47,-23.62,1008.91,-0.98,-1.22,4.27,0,0,10
-27.47,-23.62,1008.91,0.73,-1.22,-7.69,0,0,10
-27.1,-21.79,1010.56,-3.91,-0.37,3.05,0,0,10
-27.1,-21.79,1010.56,-2.81,-1.22,-1.59,0,0,10
-27.1,-20.87,1010.38,-2.56,-1.1,-2.81,0,0,10
-27.1,-20.87,1010.38,8.3,1.83,0.98,0,0,11
-30.58,-22.16,1010.01,-2.69,-3.54,2.56,0,0,10
-30.58,-22.16,1010.01,-0.61,1.1,3.05,0,0,10
-30.58,-22.16,1010.01,5.13,-2.93,1.71,0,0,10
-30.58,-22.16,1010.01,3.3,5.98,-6.96,0,0,10
-29.3,-19.78,1012.94,-5.37,2.93,4.27,0,0,10
-29.3,-19.78,1012.94,4.03,5.74,2.56,0,0,10
-27.1,-23.07,1010.56,-1.59,-4.03,-6.96,0,0,10
-27.1,-23.07,1010.56,-0.98,1.46,-7.32,0,0,10
-29.48,-21.61,1010.38,1.34,0.37,11.11,0,0,10
-29.48,-21.61,1010.38,-3.54,3.3,0.24,0,0,10
-29.11,-21.06,1010.74,0.49,1.34,-2.32,1,0,10
-29.11,-21.06,1010.74,-6.84,2.2,3.54,0,0,10
-26,-21.97,1011.11,0,-1.46,6.35,0,0,10
-26,-21.97,1011.11,5,1.95,-4.52,0,0,10
-27.65,-23.44,1009.28,-1.71,-2.93,-1.95,0,0,10
-27.65,-23.44,1009.28,2.81,-1.22,-1.1,0,0,10
-28.38,-26.73,1010.19,-3.17,0,-2.32,0,0,10
-28.38,-26.73,1010.19,1.22,0.98,2.08,-1,0,10
-26.92,-21.42,1010.93,1.71,0.24,-1.59,0,0,10
-26.92,-21.42,1010.93,2.69,-1.46,6.47,0,0,10
-26.92,-21.06,1011.29,-2.2,-1.1,-8.79,0,0,10
-26.92,-21.06,1011.29,1.83,5.74,4.03,0,0,10
-28.56,-25.09,1011.11,1.34,2.93,2.2,0,0,10
-28.56,-25.09,1011.11,0,-1.22,1.1,0,0,10
-29.11,-21.24,1010.01,1.71,-6.35,-5.62,0,0,9
-29.11,-21.24,1010.01,-0.49,3.91,-0.85,0,0,9
-29.11,-21.24,1010.01,5.25,-0.73,-0.24,0,0,11
-29.11,-21.24,1010.01,1.71,-8.79,2.32,0,0,10
-27.28,-22.89,1011.47,-0.98,-5.62,11.72,0,0,10
-27.28,-22.89,1011.47,0.61,1.1,1.1,0,0,10
-25.27,-21.06,1013.12,4.52,2.2,-2.08,0,0,10
-25.27,-21.06,1013.12,-2.81,-3.42,2.69,0,0,10
-25.27,-20.14,1010.93,-2.44,1.22,5.49,0,0,10
-25.27,-20.14,1010.93,-3.3,-3.54,-5.25,0,0,10
-27.28,-20.69,1011.66,-5.62,2.93,-14.4,0,0,10
-27.28,-20.69,1011.66,1.1,0.61,2.56,0,0,10
-27.28,-20.69,1011.66,-0.49,0.24,6.47,0,0,10
-24.54,-20.87,1009.83,6.71,0.73,5.13,0,0,10
-24.54,-20.87,1009.83,1.22,-3.05,-1.46,0,0,10
-28.93,-18.86,1012.57,0.24,-4.39,-6.84,0,0,10
-28.93,-18.86,1012.57,4.27,-3.17,-0.98,0,0,10
-28.93,-19.41,1013.49,3.17,-0.37,2.2,0,0,9
-28.93,-19.41,1013.49,3.05,1.95,4.76,0,0,10
-28.93,-19.41,1013.49,-3.05,2.2,-1.46,0,0,10
-28.93,-19.41,1013.49,-3.66,-1.71,8.06,0,0,10
-25.27,-20.69,1012.21,1.22,3.42,5.74,0,0,10
-25.27,-20.69,1012.21,-2.69,0.12,1.1,0,0,10
-27.47,-22.52,1013.12,-0.61,4.15,2.2,0,0,10
-27.47,-22.52,1013.12,-0.98,1.95,2.44,0,0,10
-28.2,-19.96,1010.38,0.61,4.27,-1.83,0,0,10
-28.2,-19.96,1010.38,7.08,1.59,2.93,0,0,10
-27.83,-20.87,1012.94,1.59,4.27,4.88,0,0,10
-27.83,-20.87,1012.94,-2.56,-0.61,1.1,1,0,10
-27.1,-19.59,1014.95,5.86,3.66,-5.49,0,0,10
-27.1,-19.59,1014.95,2.44,-0.73,-0.73,0,0,10
-26,-23.25,1011.47,-5.74,-1.34,-11.47,0,0,10
-26,-23.25,1011.47,6.59,-0.24,-4.64,0,0,10
-26.55,-24.9,1012.02,-2.08,-5.25,2.44,0,0,11
-26.55,-24.9,1012.02,-4.64,-1.22,2.32,0,0,10
-27.65,-20.32,1013.49,-3.91,-1.71,0.37,0,0,10
-27.65,-20.32,1013.49,3.78,-1.83,-0.12,0,0,10
-27.47,-22.34,1014.04,-0.49,3.78,-4.52,0,0,10
-27.47,-22.34,1014.04,12.21,3.42,15.14,0,0,10
-27.28,-19.78,1012.76,1.46,1.71,4.03,0,0,11
-27.28,-19.78,1012.76,7.57,5.49,0.85,0,0,10
-27.47,-21.24,1011.11,-0.98,-1.22,-2.08,0,0,10
-27.47,-21.24,1011.11,1.22,-5.62,1.34,0,0,10
-27.47,-21.24,1011.11,-0.24,2.32,-9.52,0,0,10
-27.47,-21.24,1011.11,-3.78,-1.83,-0.98,0,0,10
-25.63,-19.59,1012.57,-1.59,1.46,2.81,0,0,10
-25.63,-19.59,1012.57,4.76,3.78,-6.71,-1,0,10
-24.72,-20.14,1011.66,3.42,-2.81,-4.64,0,0,11
-24.72,-20.14,1011.66,0.73,4.88,0,0,0,11
-23.62,-21.42,1011.29,1.83,7.81,-2.08,0,0,10
-23.62,-21.42,1011.29,7.81,-0.98,4.15,0,0,10
-24.54,-18.13,1014.4,-1.1,-8.3,-10.5,0,0,10
-24.54,-18.13,1014.4,5.74,3.91,-1.22,0,0,9
-25.45,-23.25,1011.84,-0.24,5.25,-4.03,0,0,10
-25.82,-24.17,1012.02,0.37,-4.64,-7.57,0,0,10
-25.82,-24.17,1012.02,5.62,-5.62,9.64,0,0,10
-25.45,-21.06,1008.54,0,-0.24,-1.95,0,0,10
-25.45,-21.06,1008.54,4.15,1.34,-6.84,0,0,10
-24.54,-22.89,1010.74,1.1,6.35,1.22,0,0,10
-24.54,-22.89,1010.74,1.83,-2.08,-2.2,0,0,10
-24.54,-22.89,1010.74,2.81,-3.78,-9.28,0,0,10
-24.54,-22.89,1010.74,5.13,3.42,0,0,0,10
-24.54,-22.89,1010.74,0.37,7.93,0.61,0,0,10
-24.54,-22.89,1010.74,4.88,3.66,-1.22,0,0,10
-28.75,-20.87,1011.84,0.37,-5.62,-1.22,0,0,10
-28.75,-20.87,1011.84,-1.34,-1.71,-5.37,0,0,10
-27.65,-23.07,1011.29,0.12,5,-10.13,0,0,10
-27.65,-23.07,1011.29,-2.08,-4.03,3.66,0,0,10
-30.94,-25.09,1011.11,1.71,0.61,-0.61,0,0,10
-30.94,-25.09,1011.11,7.2,5.13,0.73,0,0,11
-31.31,-21.97,1012.76,4.39,-3.91,6.1,0,0,10
-31.31,-21.97,1012.76,-6.23,0.24,-8.42,0,0,10
-29.66,-24.35,1010.56,9.52,3.3,-0.85,0,0,10
-29.66,-24.35,1010.56,3.91,5.74,9.03,0,0,10
-28.56,-23.44,1008,4.76,-2.2,-3.54,0,0,10
-28.56,-23.44,1008,1.1,-1.1,1.83,0,0,10
-28.38,-23.62,1010.01,-0.73,3.91,-4.03,0,0,9
-28.38,-23.62,1010.01,-2.08,-6.59,0.37,0,0,10
-27.28,-22.52,1010.01,6.84,-0.61,1.83,0,0,10
-27.28,-22.52,1010.01,2.2,-4.27,5.37,0,0,10
-29.11,-21.97,1010.38,-3.3,-6.84,-8.54,0,0,11
-29.11,-21.97,1010.38,1.1,2.81,1.1,0,0,10
-25.27,-21.42,1009.83,-4.88,0,-7.32,0,0,10
-25.27,-21.42,1009.83,-0.12,-0.85,8.54,0,0,11
-26.18,-21.42,1010.19,2.32,-2.32,3.3,0,0,9
-26.18,-21.42,1010.19,3.91,2.08,4.64,0,0,10
-26.92,-20.69,1011.29,4.52,1.59,4.39,0,0,9
-26.92,-20.69,1011.29,-5.25,-2.56,0.24,0,0,10
-26.92,-21.06,1012.21,0.49,5.86,-2.69,0,0,10
-26.92,-21.06,1012.21,0.98,0,1.59,0,0,11
-27.1,-22.71,1010.01,-8.54,-2.08,-3.91,0,0,10
-27.1,-22.71,1010.01,-5.37,0.61,2.2,0,0,10
-26.92,-20.69,1011.29,-7.57,1.46,-2.93,0,0,10
-26.92,-20.69,1011.29,4.88,-1.34,3.54,0,0,10
-26.18,-23.62,1009.46,-3.05,-1.95,-4.03,0,0,10
-26,-23.62,1011.47,-3.17,2.2,-8.06,0,0,10
-26,-23.62,1011.47,-0.12,-3.91,0.24,0,0,10
-26.37,-23.99,1008.73,-0.37,-6.1,-1.22,0,0,10
-26.37,-23.99,1008.73,-3.91,0.85,0,0,0,10
-25.63,-22.52,1009.64,-5.37,-0.37,-2.81,0,0,10
-25.63,-22.52,1009.64,2.69,-3.3,-4.64,0,0,10
-25.63,-22.52,1009.64,-3.54,0.24,-0.24,0,0,10
-25.63,-22.52,1009.64,-1.34,7.45,14.04,0,0,10
-25.63,-22.52,1009.64,-3.91,-5.13,-2.2,0,0,10
-25.63,-22.52,1009.64,-0.24,-5.86,-5,0,0,10
-28.02,-23.25,1010.56,-3.78,-4.76,0.49,0,0,10
-28.02,-23.25,1010.56,-0.98,-0.24,5.74,0,0,10
-27.83,-21.24,1014.22,2.44,-4.27,-4.88,0,0,10
-27.83,-21.24,1014.22,-1.95,-1.71,-5.25,0,0,11
-27.65,-20.14,1012.39,-4.03,2.93,-1.59,0,0,11
-27.65,-20.14,1012.39,3.42,-3.42,-3.78,0,0,10
-28.56,-19.96,1011.84,4.03,-0.49,-6.23,0,0,10
-28.56,-19.96,1011.84,-1.59,1.71,0.37,0,0,11
-30.4,-21.24,1011.11,1.22,0.49,-2.69,0,0,10
-30.4,-21.24,1011.11,-0.73,-4.39,-0.24,0,0,10
-30.21,-22.71,1010.74,1.1,-0.12,-0.37,0,0,10
-30.21,-22.71,1010.74,2.08,0.24,-4.27,0,0,10
-27.65,-21.06,1010.19,0.98,9.4,-8.54,0,0,9
-27.65,-21.06,1010.19,3.78,2.2,-6.35,0,0,10
-28.75,-21.79,1011.11,-4.27,-4.76,-9.77,0,0,10
-28.75,-21.79,1011.11,0.98,4.15,-3.05,0,0,10
-28.38,-23.8,1010.93,5.37,-1.71,4.27,0,0,10
-28.38,-23.8,1010.93,-3.54,-0.37,-2.2,0,0,10
-26.18,-23.07,1009.46,-1.46,0.98,-9.16,0,0,10
-26.18,-23.07,1009.46,-4.52,3.17,-1.1,0,0,10
-26.55,-24.17,1011.11,1.46,0.61,-4.27,0,0,10
-26.55,-24.17,1011.11,-0.98,-4.88,3.3,0,0,10
-24.9,-23.25,1010.19,-4.88,-2.93,8.42,0,0,10
-24.9,-23.25,1010.19,4.39,-6.23,3.54,0,0,10
-26.37,-23.07,1010.38,1.34,3.91,-4.64,0,0,10
-26.37,-23.07,1010.38,-0.73,-6.96,-4.03,0,0,10
-24.17,-23.44,1012.57,3.17,-2.69,0,0,0,10
-24.17,-23.44,1012.57,-0.98,0.49,-3.05,0,0,10
-24.54,-22.34,1010.74,0,-4.76,-4.27,0,0,10
-24.54,-22.34,1010.74,-4.88,-2.08,2.93,0,0,10
-27.1,-24.9,1008.91,2.44,0.85,-5.62,0,0,10
-28.02,-25.09,1009.46,0.49,4.39,-12.21,0,0,10
-28.02,-25.09,1009.46,0.12,0.37,-1.71,0,0,10
-27.65,-23.8,1010.38,-0.61,-5.25,8.79,0,0,10
-27.65,-23.8,1010.38,-0.98,0.37,-1.59,0,0,10
-28.93,-21.42,1011.66,3.91,3.42,1.71,0,0,10
-28.93,-21.42,1011.66,-3.05,-4.39,0.85,0,0,10
-28.93,-21.42,1011.66,-2.32,-0.37,-7.2,0,0,10
-28.93,-21.42,1011.66,3.78,-3.3,-2.56,0,0,10
-28.93,-21.42,1011.66,0.85,-1.1,-15.01,0,0,10
-28.93,-21.42,1011.66,0,4.88,2.56,0,0,10
-29.3,-20.87,1010.56,2.44,-0.61,-3.17,0,0,10
-29.3,-20.87,1010.56,2.81,-0.85,4.03,0,0,10
-28.93,-23.44,1010.93,4.64,3.91,-0.49,0,0,10
-28.93,-23.44,1010.93,-4.64,-2.2,-1.83,0,0,9
-28.75,-23.07,1011.47,-2.93,0.85,3.42,0,0,10
-28.75,-23.07,1011.47,5.13,1.34,-4.15,0,0,10
-28.02,-24.35,1012.39,-5.37,1.1,-5.13,0,0,10
-28.02,-24.35,1012.39,1.46,-3.54,1.95,0,0,10
-29.3,-26,1011.47,-3.17,-3.42,5,0,0,10
-29.3,-26,1011.47,5.74,3.66,-6.59,0,0,10
-29.3,-26.18,1009.46,-0.73,-1.34,-5,0,0,10
-29.3,-26.18,1009.46,1.59,-0.12,5.62,0,0,10
-27.65,-24.72,1010.01,-4.64,1.1,-5.13,0,0,10
-27.65,-24.72,1010.01,6.1,4.03,-1.1,0,0,10
-29.85,-22.16,1011.47,2.93,0,3.78,0,0,9
-29.85,-22.16,1011.47,1.71,0.61,3.54,0,0,10
-29.3,-23.44,1010.19,0.85,1.95,3.66,0,0,10
-29.3,-23.44,1010.19,4.15,-4.15,4.64,0,0,10
-28.02,-20.51,1014.77,1.1,-1.83,7.08,0,0,10
-28.02,-20.51,1014.77,0,-1.83,1.83,0,0,10
-27.1,-17.4,1014.4,-1.71,-4.15,-6.96,0,0,10
-27.1,-17.4,1014.4,1.34,-2.56,4.03,0,0,10
-25.45,-18.31,1012.57,0.85,-0.49,-5.37,0,0,9
-25.45,-18.31,1012.57,2.56,-1.83,-4.64,0,0,10
-25.82,-19.78,1014.59,-1.46,-4.27,-2.32,0,0,10
-25.82,-19.78,1014.59,6.1,-3.54,6.59,0,0,10
-25.09,-21.61,1011.66,1.71,4.64,-2.2,0,0,10
-25.09,-21.61,1011.66,-6.96,-2.44,-15.87,0,0,10
-25.82,-21.42,1011.29,4.03,4.03,4.88,0,0,10
-25.82,-21.42,1011.29,0.24,-3.78,1.95,0,0,10
-24.72,-19.96,1012.21,6.59,1.1,0.24,0,0,10
-25.82,-21.24,1011.11,1.46,2.93,1.71,0,0,10
-25.82,-21.24,1011.11,1.95,2.93,5.49,0,0,11
-26.37,-23.07,1011.66,1.46,8.67,-5.49,0,0,10
-26.37,-23.07,1011.66,5.74,-0.12,9.64,0,0,10
-27.1,-25.63,1010.93,1.1,-0.49,1.71,0,0,10
-27.1,-25.63,1010.93,-0.98,-1.95,2.81,0,0,11
-27.1,-22.89,1008.54,-0.24,-3.54,8.54,0,0,9
-27.1,-22.89,1008.54,-0.24,-5,6.84,0,0,10
-27.1,-22.89,1008.54,-2.56,3.78,4.76,0,0,10
-27.1,-22.89,1008.54,6.84,-3.05,-4.88,0,0,11
-31.31,-24.9,1012.02,-3.66,6.84,-2.08,0,0,10
-31.31,-24.9,1012.02,1.46,4.27,6.59,0,0,11
-26.55,-23.07,1010.93,-3.54,-6.84,-8.3,0,0,10
-26.55,-23.07,1010.93,-0.37,1.46,-3.54,0,0,10
-28.02,-26.73,1010.93,0.85,-1.59,-3.17,0,0,10
-28.02,-26.73,1010.93,-0.98,6.47,5.74,0,0,10
-28.56,-26,1011.11,-2.32,0.49,0.24,0,0,10
-28.56,-26,1011.11,-0.61,0.98,-5.49,0,0,10
-28.56,-26,1010.01,4.52,0.98,-4.39,0,0,10
-28.56,-26,1010.01,1.71,3.54,0.37,0,0,10
-26.73,-25.45,1008.91,1.22,0,3.91,0,0,11
-26.73,-25.45,1008.91,-0.61,5.86,6.96,0,0,10
-28.56,-23.25,1009.28,-0.98,-3.05,-2.32,0,0,10
-28.56,-23.25,1009.28,2.08,-4.52,7.81,0,0,10
-27.28,-21.42,1010.93,-3.42,-4.52,-4.27,0,0,10
-27.28,-21.42,1010.93,0.73,1.71,2.08,0,0,10
-26.92,-17.76,1011.66,6.1,0.49,10.86,0,0,10
-26.92,-17.76,1011.66,0.85,-3.91,4.88,0,0,10
-28.75,-16.48,1011.29,-0.24,-1.46,4.76,0,0,10
-28.75,-16.48,1011.29,-3.17,4.64,-6.96,0,0,10
-26.37,-13.18,1011.84,6.35,0,3.42,0,0,10
-26.37,-13.18,1011.84,-5.37,2.08,-9.16,0,0,10
-26.37,-9.34,1012.21,0.12,-1.83,7.2,0,0,10
-26.37,-9.34,1012.21,0,7.45,10.38,0,0,10
-24.35,-11.35,1012.76,0.85,3.17,3.91,0,0,10
-24.35,-11.35,1012.76,-0.12,-2.08,-9.03,0,0,10
-24.35,-14.28,1012.94,-0.85,-1.22,-8.67,0,0,10
-24.35,-14.28,1012.94,6.35,5.62,0.49,0,0,10
-23.8,-17.4,1011.84,2.2,-4.27,-1.1,0,0,10
-23.8,-17.4,1011.84,1.83,-2.56,-2.44,0,0,10
-23.8,-18.86,1014.22,4.76,5.49,3.91,0,0,10
-20.87,-20.32,1010.93,-3.91,2.93,-4.52,0,0,10
-20.87,-20.32,1010.93,3.42,4.88,1.83,0,0,10
-24.72,-22.34,1010.93,-3.42,-0.12,4.15,0,0,10
-24.72,-22.34,1010.93,3.3,-1.95,1.83,0,0,10
-24.17,-22.89,1010.38,2.81,2.08,5.13,0,0,10
-24.17,-22.89,1010.38,-0.37,-2.32,-5.49,0,0,10
-26,-26.37,1010.56,2.81,1.83,-0.49,0,0,9
-26,-26.37,1010.56,-4.27,-5.74,7.08,0,0,10
-26,-26.37,1010.56,2.56,3.3,3.42,0,0,10
-26,-26.37,1010.56,3.78,-4.03,-10.99,0,0,10
-29.85,-26,1012.57,3.78,-1.71,0.61,0,0,10
-29.85,-26,1012.57,-4.88,-6.59,-4.27,0,0,10
-32.41,-26,1010.93,-0.73,-1.83,-3.66,0,0,10
-32.41,-26,1010.93,0.37,0.12,0.49,0,0,10
-33.51,-25.82,1012.02,-0.12,-2.08,3.17,0,0,10
-33.51,-25.82,1012.02,4.27,3.66,3.91,0,0,10
-32.23,-25.45,1012.21,-3.05,-3.54,-7.45,0,0,10
-32.23,-25.45,1012.21,2.44,4.03,-3.54,0,0,9
-32.23,-27.28,1012.76,-5,-2.44,1.34,0,0,10
-32.23,-27.28,1012.76,3.42,1.83,1.34,0,0,9
-33.69,-25.63,1010.56,2.56,0.85,0.73,0,0,10
-33.69,-25.63,1010.56,2.2,6.71,-4.39,0,0,10
-32.23,-28.2,1009.09,-2.2,4.15,14.77,0,0,10
-32.23,-28.2,1009.09,3.42,-3.54,-1.95,0,0,10
-29.3,-26,1009.46,-1.59,-0.98,-6.59,0,0,10
-29.3,-26,1009.46,-7.32,-5.25,-12.45,0,0,10
-28.2,-23.44,1011.11,-1.71,-4.39,-5.37,0,0,10
-28.2,-23.44,1011.11,-4.15,-4.39,1.83,0,0,10
-27.47,-22.71,1009.46,0,-1.95,2.08,0,0,10
-27.47,-22.71,1009.46,-6.35,1.59,2.44,0,0,10
-26,-17.76,1010.74,6.84,3.66,7.2,0,0,10
-26,-17.76,1010.74,2.69,-0.85,-1.71,0,0,10
-25.09,-16.11,1012.76,-1.83,-3.54,6.1,0,0,10
-25.09,-16.11,1012.76,0.85,0.61,3.91,0,0,10
-25.09,-13.73,1012.02,-3.78,-2.93,0.24,0,0,10
-25.09,-13.73,1012.02,-2.32,-0.98,3.05,0,0,11
-24.17,-14.47,1011.84,-5.37,-1.59,0.73,0,0,10
-24.17,-14.47,1011.84,-2.32,-3.05,-6.23,0,0,11
-23.07,-14.65,1012.94,0,-2.2,2.56,0,0,10
-23.07,-14.65,1012.94,-1.1,-4.39,-1.22,0,0,10
-23.44,-18.49,1008.36,-3.17,1.71,-13.18,0,0,10
-24.72,-20.14,1006.16,-1.95,1.1,1.22,0,0,10
-24.72,-20.14,1006.16,2.81,6.23,3.91,0,0,10
-20.14,-18.31,1008,0.61,-3.3,2.93,0,0,10
-20.14,-18.31,1008,2.32,2.08,0.73,0,0,10
-22.34,-17.94,1009.64,-1.95,-1.95,0.12,0,0,10
-22.34,-17.94,1009.64,-5.62,-4.03,5.98,0,0,10
-24.9,-19.59,1011.11,1.46,-1.71,-3.91,0,0,10
-24.9,-19.59,1011.11,5.74,-2.69,0.85,0,0,10
-24.9,-19.59,1011.11,5.62,6.84,11.84,0,0,10
-24.9,-19.59,1011.11,-4.76,-2.44,-0.61,0,0,10
-28.02,-20.32,1012.76,0.98,-4.39,-1.34,0,0,10
-28.02,-20.32,1012.76,-2.44,-5.49,-4.64,0,0,10
-25.63,-22.34,1012.21,-0.24,0.73,-4.15,0,0,10
-25.63,-22.34,1012.21,0.73,-0.85,-3.78,0,0,10
-26.92,-25.27,1010.56,-5.86,-1.1,-6.59,0,0,10
-26.92,-25.27,1010.56,-0.24,2.69,-2.2,0,0,9
-30.76,-26,1011.47,-0.61,-2.08,-0.37,0,0,10
-30.76,-26,1011.47,3.42,0.73,-1.46,0,0,11
-31.13,-25.27,1010.38,4.03,-2.69,-10.38,0,0,10
-31.13,-25.27,1010.38,-5.49,-4.52,-13.79,0,0,10
-30.76,-27.28,1011.11,-0.37,3.17,1.95,0,0,10
-30.76,-27.28,1011.11,5.74,-4.03,-2.44,0,0,10
-30.76,-28.02,1012.94,-1.83,1.22,-2.93,0,0,10
-30.76,-28.02,1012.94,-5.86,-0.73,-2.08,0,0,10
-31.13,-29.48,1012.76,2.56,-0.12,-0.61,0,0,10
-31.13,-29.48,1012.76,-0.49,-5,2.56,0,0,10
-30.76,-28.93,1009.46,-2.69,-6.47,4.27,0,0,10
-30.76,-28.93,1009.46,-3.54,2.93,9.16,0,0,10
-32.04,-28.02,1008.73,4.76,-4.76,4.88,0,0,10
-32.04,-28.02,1008.73,-0.49,-3.3,5.98,0,0,11
-30.94,-28.2,1008.91,2.32,8.3,-1.59,1,0,10
-30.94,-28.2,1008.91,4.64,-1.83,4.64,0,0,10
-27.83,-25.63,1011.47,-0.37,2.69,-1.34,0,0,10
-27.83,-25.63,1011.47,6.96,-1.1,-6.23,0,0,10
-28.02,-22.34,1011.29,-6.23,-4.15,-5,0,0,10
-28.02,-22.34,1011.29,-0.85,-6.35,-0.61,0,0,10
-27.83,-18.49,1012.02,-1.46,-0.37,3.66,0,0,10
-27.83,-18.49,1012.02,3.91,-1.22,10.62,0,0,10
-26.37,-16.85,1010.19,-2.56,1.71,0.85,0,0,10
-26.37,-16.85,1010.19,1.46,2.93,-1.46,0,0,10
-23.44,-13.18,1009.09,0.37,-0.98,-2.2,0,0,10
-23.44,-13.18,1009.09,-0.98,3.3,-4.39,0,0,10
-23.44,-13.18,1009.09,1.34,-3.78,-4.03,0,0,10
-26.37,-12.45,1010.38,5.25,-2.32,-1.71,0,0,10
-26.37,-12.45,1010.38,0.24,-5.49,-0.24,0,0,10
-23.07,-13.37,1010.38,-0.49,9.28,1.83,0,0,10
-23.07,-13.37,1010.38,-1.46,1.59,4.52,0,0,10
-23.99,-13.55,1012.39,1.59,1.83,5.13,0,0,10
-23.99,-13.55,1012.39,1.83,0,-6.47,0,0,10
-23.99,-13.55,1012.39,-3.17,-6.1,1.83,0,0,10
-23.99,-13.55,1012.39,-3.54,3.91,-2.08,0,0,10
-23.62,-15.93,1011.29,0.61,5.86,4.88,0,0,10
-23.62,-15.93,1011.29,3.3,-4.52,13.67,0,0,10
-23.07,-19.96,1013.49,-0.24,3.54,-0.37,0,0,10
-23.07,-19.96,1013.49,3.54,-1.83,-4.15,0,0,10
-25.63,-20.87,1013.85,-5.62,-6.47,9.16,0,0,10
-25.63,-20.87,1013.85,-5.98,3.17,-7.32,0,0,10
-27.83,-24.35,1011.11,2.93,-1.1,-0.61,0,0,10
-27.83,-24.35,1011.11,1.95,0,-5.98,0,0,10
-28.2,-27.65,1010.74,-3.42,-0.98,-1.83,0,0,10
-28.2,-27.65,1010.74,-0.98,3.42,3.17,0,0,10
-28.93,-29.48,1012.57,4.27,-0.24,0,0,0,10
-28.93,-29.48,1012.57,3.05,-1.22,4.03,0,0,10
-30.21,-32.41,1013.31,2.32,0.85,9.28,-1,0,10
-30.21,-32.41,1013.31,1.34,1.1,-1.34,0,0,10
-30.94,-32.41,1013.49,-3.78,-1.46,1.34,0,0,10
-30.94,-32.41,1013.49,-2.93,0.73,-9.03,0,0,10
-32.78,-31.13,1013.67,-0.85,0.24,-1.22,0,0,10
-32.78,-31.13,1013.67,10.01,2.08,1.1,0,0,9
-32.23,-30.03,1010.01,2.08,4.15,4.52,0,0,10
-32.23,-30.03,1010.01,2.93,-5.25,0.85,0,0,10
-32.59,-26.92,1012.57,-2.69,1.1,-4.88,0,0,10
-32.59,-26.92,1012.57,4.64,2.44,-4.27,0,0,10
-32.59,-26.92,1012.57,1.22,-2.2,-12.08,0,0,10
-32.59,-26.92,1012.57,1.59,3.17,-5.62,0,0,10
-31.13,-20.69,1009.64,-6.59,1.46,-4.39,0,0,10
-31.13,-20.69,1009.64,-0.98,2.08,1.34,0,0,10
-31.68,-15.2,1010.56,-0.12,5.74,-1.59,0,0,10
-31.68,-15.2,1010.56,0.73,4.76,4.88,0,0,10
-30.03,-12.27,1011.47,1.46,-1.1,-3.78,0,0,10
-30.03,-12.27,1011.47,2.56,0.24,4.52,0,0,10
-25.82,-14.28,1011.47,3.78,4.52,10.13,0,0,10
-25.82,-14.28,1011.47,0.61,-0.37,3.17,0,0,10
-25.82,-14.28,1011.47,2.81,-2.56,5.13,0,0,10
-24.17,-10.07,1010.19,-0.98,-0.98,-9.77,0,0,9
-24.17,-10.07,1010.19,6.1,-3.42,-3.66,0,0,11
-22.89,-12.63,1010.74,0.12,-3.3,-2.69,0,0,10
-22.89,-12.63,1010.74,1.46,-3.3,-4.15,0,0,11
-18.68,-12.82,1013.12,4.88,5.25,8.18,0,0,9
-18.68,-12.82,1013.12,1.83,-5.25,-2.81,0,0,10
-18.68,-12.82,1013.12,2.44,6.71,-4.27,0,0,10
-18.68,-12.82,1013.12,-1.1,3.66,-0.73,0,0,10
-19.96,-18.31,1009.64,2.32,-1.46,-0.61,0,0,10
-19.96,-18.31,1009.64,-2.56,0.98,-3.17,0,0,10
-21.97,-22.16,1014.22,10.62,-2.2,5.37,0,0,10
-21.97,-22.16,1014.22,-3.91,-2.08,-3.3,0,0,10
-21.61,-23.44,1011.66,1.95,-1.1,0.24,0,0,10
-21.61,-23.44,1011.66,5.13,3.17,-1.95,0,0,10
-24.54,-23.44,1011.47,-3.42,2.81,-3.54,0,0,10
-24.54,-23.44,1011.47,-2.93,-4.15,-0.24,0,0,10
-27.28,-25.82,1013.12,2.32,2.2,-0.85,0,0,10
-27.28,-25.82,1013.12,0.98,0,7.69,0,0,10
-29.85,-24.72,1014.04,-0.12,-4.39,4.64,0,0,10
-29.85,-24.72,1014.04,3.05,0.37,-1.34,0,0,10
-32.59,-26.92,1012.39,0.12,-1.95,-0.24,0,0,10
-32.59,-26.92,1012.39,-2.32,7.57,-6.96,0,0,10
-34.42,-30.76,1013.12,-3.05,1.95,-4.15,0,0,10
-34.42,-30.76,1013.12,-1.95,1.34,-6.47,0,0,10
-33.14,-30.76,1009.64,2.69,2.69,-4.03,0,0,10
-33.14,-30.76,1009.64,-4.76,1.46,-3.3,0,0,9
-33.14,-26.55,1010.74,-0.49,-3.91,3.54,0,0,10
-33.14,-26.55,1010.74,-3.42,-9.16,-8.3,0,0,10
-34.79,-26,1011.29,1.83,1.59,1.46,0,0,10
-34.79,-26,1011.29,3.42,1.95,5.62,0,0,10
-34.79,-26,1011.29,-2.56,-2.81,-2.08,1,-1,10
-34.79,-26,1011.29,-3.91,-1.71,8.3,0,0,11
-34.24,-22.52,1012.39,1.22,-3.05,0.85,0,0,10
-34.24,-22.52,1012.39,1.83,-1.71,-0.73,0,0,10
-32.78,-18.49,1010.01,1.34,-4.64,0.61,0,0,10
-32.78,-18.49,1010.01,8.54,2.2,8.54,-1,0,10
-30.03,-14.83,1013.49,4.39,2.93,-2.69,0,0,10
-30.03,-14.83,1013.49,-2.93,2.44,-1.22,0,1,11
-25.45,-19.59,1012.94,6.47,-4.64,0.85,0,0,10
-25.45,-19.59,1012.94,-0.12,1.34,5.25,0,0,10
-23.99,-18.13,1013.31,-1.71,1.95,0.37,0,0,10
-20.69,-17.21,1010.74,-1.71,6.1,9.52,1,0,10
-20.69,-17.21,1010.74,-6.1,3.42,8.67,0,0,10
-19.23,-14.1,1011.29,2.08,-0.49,-5.13,0,0,10
-19.23,-14.1,1011.29,4.76,2.32,-1.46,1,-1,10
-18.86,-15.2,1012.21,-3.78,5,11.84,0,0,10
-18.86,-15.2,1012.21,1.95,-0.49,0.49,0,0,10
-18.86,-15.2,1012.21,0.37,-0.37,3.42,-1,0,10
-18.86,-15.2,1012.21,4.39,-1.83,-1.1,0,0,10
-18.86,-15.2,1012.21,-0.37,6.1,-1.1,0,0,9
-18.86,-15.2,1012.21,5.98,-2.2,-0.49,-1,1,10
-18.49,-19.41,1008.73,12.33,3.66,3.78,0,0,10
-18.49,-19.41,1008.73,3.91,-4.27,-5.49,0,0,10
-22.16,-22.89,1010.93,-2.32,-0.73,3.78,0,0,10
-22.16,-22.89,1010.93,1.1,-2.93,-3.17,0,0,10
-25.27,-21.61,1010.56,-4.39,-1.59,2.2,0,0,10
-25.27,-21.61,1010.56,-5.98,-4.39,0.85,0,0,10
-25.82,-25.27,1012.21,-2.56,0,1.34,0,0,10
-25.82,-25.27,1012.21,-5.37,0.73,2.2,0,0,11
-29.85,-27.1,1010.56,-3.66,3.66,-3.17,0,0,10
-29.85,-27.1,1010.56,-4.64,0.61,0.24,0,0,10
-33.87,-26,1013.49,2.69,0.49,-2.69,0,0,10
-33.87,-26,1013.49,0.98,2.44,-3.3,0,0,10
-33.33,-23.8,1009.28,-3.17,-1.1,-3.91,0,0,10
-33.33,-23.8,1009.28,3.3,-5.49,3.17,0,0,10
-37.54,-28.93,1010.01,5.62,0.73,6.71,0,0,10
-37.54,-28.93,1010.01,2.44,0.24,4.88,0,0,10
-37.72,-24.72,1014.59,-3.17,-0.85,0.24,0,0,11
-37.72,-24.72,1014.59,-1.95,2.08,0.12,0,0,10
-36.44,-23.8,1011.47,1.34,4.15,0.37,0,0,10
-36.44,-23.8,1011.47,-2.93,-1.95,-2.93,0,0,10
-35.52,-25.45,1012.76,0,-0.73,-6.47,0,0,10
-35.52,-25.45,1012.76,-1.95,-2.69,9.77,0,0,10
-33.14,-19.59,1010.93,-2.81,0.98,-2.81,0,0,10
-33.14,-19.59,1010.93,-4.15,6.59,-3.66,0,0,10
-29.66,-21.24,1012.94,2.44,5.62,-1.83,0,0,11
-29.66,-21.24,1012.94,2.32,6.84,-9.89,0,0,10
-27.65,-20.32,1011.29,2.93,0.24,2.69,0,0,11
-27.65,-20.32,1011.29,1.83,3.54,-5.49,0,0,10
-25.82,-17.58,1011.66,3.78,4.88,2.08,0,0,10
-25.82,-17.58,1011.66,-0.98,-4.15,0.61,0,0,10
-23.99,-18.13,1010.38,-3.17,1.95,-1.95,0,0,11
-21.24,-20.51,1011.47,3.54,3.42,4.76,0,0,10
-21.24,-20.51,1011.47,-5.62,3.91,-10.86,0,0,10
-17.94,-17.94,1011.47,5.13,0.98,-7.32,0,0,10
-17.94,-17.94,1011.47,-1.71,-8.67,5.62,0,0,10
-18.86,-18.13,1010.74,5.62,-3.05,-9.28,0,0,10
-18.86,-18.13,1010.74,5.49,-4.27,-5.86,0,0,10
-18.86,-18.13,1010.74,-3.54,-1.83,-14.89,0,0,10
-18.86,-18.13,1010.74,-1.95,-0.49,-0.24,0,0,10
-18.86,-18.13,1010.74,5.37,-2.44,0.85,0,0,10
-18.86,-18.13,1010.74,4.76,3.66,0,0,0,10
-21.24,-18.31,1010.56,-2.08,1.83,-1.59,0,0,10
-21.24,-18.31,1010.56,4.76,3.17,4.76,0,0,10
-21.42,-19.04,1011.11,4.52,1.71,-7.45,0,0,10
-21.42,-19.04,1011.11,-2.2,-1.59,-3.66,0,0,10
-25.27,-20.87,1010.19,3.3,-2.44,-16.97,0,0,10
-25.27,-20.87,1010.19,2.69,3.17,10.38,0,0,9
-28.2,-21.79,1008.91,-3.78,-2.2,-9.03,1,0,10
-28.2,-21.79,1008.91,0.12,3.05,1.46,0,0,9
-30.76,-22.89,1007.63,-0.24,-3.17,-8.18,0,0,10
-30.76,-22.89,1007.63,-5.37,3.05,2.44,0,0,10
-32.04,-23.8,1009.46,-5.86,2.69,3.42,0,0,10
-32.04,-23.8,1009.46,2.56,2.56,-2.69,0,0,10
-31.68,-21.61,1013.31,-0.73,5.62,7.32,0,0,10
-31.68,-21.61,1013.31,0,1.59,0.98,0,0,10
-34.61,-24.17,1009.83,0.37,-2.2,3.17,0,0,10
-34.61,-24.17,1009.83,1.22,-1.22,0.98,0,0,10
-33.69,-30.21,1009.83,2.81,-3.3,-10.01,0,0,10
-33.69,-30.21,1009.83,-4.76,-2.56,-3.66,0,0,10
-32.96,-30.58,1011.11,-0.12,1.71,-2.44,0,0,10
-32.96,-30.58,1011.11,-9.4,-2.2,-6.23,0,0,10
-32.04,-31.86,1010.93,-0.24,-4.03,2.32,-1,0,10
-32.04,-31.86,1010.93,1.83,-7.45,-8.06,0,0,10
-32.41,-30.76,1012.02,-0.98,-0.12,-5,0,0,10
-32.41,-30.76,1012.02,-1.1,-3.54,-12.45,0,0,10
-29.48,-26.92,1010.56,2.08,-2.08,0.61,0,0,10
-29.48,-26.92,1010.56,-2.32,1.95,0.73,0,0,10
-29.85,-24.17,1010.38,-5.25,-6.35,-0.85,0,0,10
-29.85,-24.17,1010.38,-1.95,-2.56,-2.93,0,0,10
-26.73,-23.99,1012.39,0.73,-3.54,1.34,0,0,10
-26.73,-23.99,1012.39,-1.34,4.03,4.27,0,0,10
-27.65,-22.34,1010.38,-5,5.98,-15.01,0,0,10
-25.63,-18.49,1012.76,-1.95,0,-2.69,0,0,10
-25.63,-18.49,1012.76,-1.59,-0.85,-2.44,0,0,9
-24.9,-13,1011.11,7.2,0.37,3.91,0,0,10
-24.9,-13,1011.11,0,-1.1,6.96,0,0,10
-27.83,-15.01,1011.11,2.81,3.42,0.61,0,0,10
-27.83,-15.01,1011.11,-1.71,5.98,-7.32,0,0,10
-27.83,-15.01,1011.11,-5.37,4.03,-7.45,0,0,10
-27.83,-15.01,1011.11,-0.85,1.83,4.27,0,0,10
-27.83,-15.01,1011.11,2.56,-0.49,2.81,0,0,10
-27.83,-15.01,1011.11,-5,7.69,-0.49,0,0,10
-20.14,-9.7,1014.77,-0.98,-3.54,-0.12,0,0,10
-20.14,-9.7,1014.77,-4.88,2.2,-1.22,0,0,10
-20.51,-10.25,1012.94,4.64,-5.49,0.98,0,0,10
-20.51,-10.25,1012.94,2.2,-5,2.93,0,0,11
-21.61,-14.83,1010.56,-2.81,-6.35,1.1,0,0,10
-21.61,-14.83,1010.56,3.91,0.37,-0.61,0,0,10
-22.89,-19.23,1011.66,3.78,5.13,0,0,0,9
-22.89,-19.23,1011.66,-6.23,-0.24,1.71,0,0,10
-25.09,-22.71,1013.49,-1.83,1.22,1.83,0,0,10
-25.09,-22.71,1013.49,0.98,2.81,-7.08,0,0,10
-28.93,-26.92,1010.93,0.98,-2.44,-0.98,0,0,10
-28.93,-26.92,1010.93,2.69,-1.22,6.47,0,0,10
-29.85,-28.75,1010.93,-1.34,1.59,4.64,0,0,10
-29.85,-28.75,1010.93,-7.08,-1.34,-2.08,0,0,10
-28.75,-28.56,1011.29,6.71,0.12,4.88,0,0,11
-28.75,-28.56,1011.29,0.61,-1.34,5,0,0,10
-30.76,-29.11,1012.76,-3.3,-0.73,1.59,0,0,10
-30.76,-29.11,1012.76,-1.22,-3.54,-6.1,0,0,10
-33.51,-28.2,1009.46,-1.34,-1.46,-5.86,0,0,10
-33.51,-28.2,1009.46,-1.95,3.66,-3.66,0,0,10
-33.14,-28.56,1011.66,2.69,-2.69,-1.1,0,0,11
-33.14,-28.56,1011.66,-3.54,-2.08,-5.98,0,0,11
-35.16,-28.02,1010.56,-3.3,3.42,1.95,0,0,11
-35.16,-28.02,1010.56,1.22,-0.49,-1.34,0,0,10
-33.51,-27.83,1009.64,8.79,-0.85,3.42,0,0,10
-33.51,-27.83,1009.64,3.17,-2.56,2.93,0,0,10
-31.13,-27.83,1009.83,-3.66,2.08,5.49,0,0,10
-31.13,-27.83,1009.83,5.25,0.85,2.93,0,0,10
-30.21,-26.73,1008.91,0.61,-2.56,4.27,0,0,10
-30.21,-26.73,1008.91,-1.95,0.73,-4.76,0,0,10
-28.93,-24.9,1012.02,1.1,-1.71,3.3,0,0,11
-28.93,-22.52,1010.93,1.1,-5.13,0.98,0,0,10
-28.93,-22.52,1010.93,2.32,4.27,7.32,0,0,11
-25.63,-19.41,1009.83,0.12,1.46,-5.49,1,-1,10
-25.63,-19.41,1009.83,-1.71,9.16,-0.98,0,0,10
-24.35,-17.4,1010.19,-0.12,-1.83,0.37,0,0,10
-24.35,-17.4,1010.19,2.08,3.42,1.1,0,0,10
-22.16,-13.73,1010.01,1.71,3.3,-0.24,0,0,10
-22.16,-13.73,1010.01,2.81,2.2,2.32,0,1,11
-22.16,-13.73,1010.01,-0.73,1.95,-1.71,0,0,10
-22.16,-13.73,1010.01,-0.98,6.23,-2.81,0,0,11
-22.52,-11.35,1012.39,1.83,-0.12,-0.98,0,0,10
-22.52,-11.35,1012.39,0.49,2.81,3.66,0,0,10
-21.06,-8.42,1010.38,-1.83,2.81,4.88,0,0,10
-21.06,-8.42,1010.38,4.03,2.56,2.32,0,0,10
-21.61,-8.97,1011.84,3.3,0.85,5.13,-1,0,10
-21.61,-8.97,1011.84,0.61,0,-1.95,0,0,10
-24.9,-9.89,1010.93,2.32,1.83,11.6,0,0,9
-24.9,-9.89,1010.93,1.22,0,0,0,0,10
-23.8,-12.27,1010.93,-1.83,-3.91,1.46,0,0,10
-23.8,-12.27,1010.93,1.22,1.71,-2.32,0,0,10
-24.9,-18.13,1010.93,-1.1,-1.95,9.03,0,0,10
-24.9,-18.13,1010.93,1.34,0.73,-7.32,0,0,10
-23.62,-23.25,1011.66,-0.61,3.54,2.2,0,0,10
-23.62,-23.25,1011.66,-1.34,-2.93,-1.22,0,0,11
-26.18,-25.82,1011.47,-6.84,-1.71,0.85,0,0,10
-26.18,-25.82,1011.47,-1.22,-8.18,-4.52,0,0,10
-28.2,-30.76,1008.18,-5.13,5.74,4.76,0,0,10
-28.2,-30.76,1008.18,6.47,-2.56,2.2,0,0,10
-30.4,-28.75,1009.83,0.12,-4.39,9.64,0,0,10
-30.4,-28.75,1009.83,-1.1,-0.73,7.08,0,0,10
-31.31,-32.04,1012.02,1.59,-0.12,0.61,0,0,10
-31.31,-32.04,1012.02,0.85,6.96,3.05,0,0,10
-31.86,-31.86,1012.57,1.83,3.05,2.2,0,0,11
-31.86,-31.86,1012.57,0.85,1.1,3.05,0,0,10
-35.89,-30.94,1009.83,-0.37,2.44,6.1,0,0,10
-35.89,-30.94,1009.83,-0.85,-9.64,-1.59,0,0,10
-33.87,-29.11,1009.83,-2.93,-0.61,-2.32,0,0,10
-33.87,-29.11,1009.83,1.71,-1.83,-5.49,0,0,11
-34.79,-26.73,1011.29,-2.32,-5.25,-13.43,0,0,10
-34.79,-26.73,1011.29,-5.86,-0.24,1.34,0,0,10
-33.33,-23.8,1011.29,3.78,3.42,-0.12,0,0,11
-30.21,-23.25,1010.93,-8.18,-5,-4.88,0,0,11
-30.21,-23.25,1010.93,-1.1,-0.12,-12.21,0,0,10
-30.4,-18.68,1011.11,5.49,-4.03,1.59,0,0,10
-30.4,-18.68,1011.11,3.05,-1.22,-1.34,0,0,10
-27.83,-17.4,1011.11,-2.44,-1.95,4.15,0,0,10
-27.83,-17.4,1011.11,0,3.78,4.52,0,0,10
-24.17,-18.31,1010.74,-1.46,-0.98,-1.22,0,0,10
-24.17,-18.31,1010.74,3.78,-3.66,1.46,0,0,10
-24.17,-18.31,1010.74,-0.49,2.32,-3.3,0,0,10
-24.17,-18.31,1010.74,-2.56,4.03,-2.93,0,0,10
-20.69,-16.66,1011.47,-0.24,1.71,0.61,0,0,10
-20.69,-16.66,1011.47,-3.78,-1.95,0.37,0,0,10
-19.23,-16.66,1009.46,0.98,-1.59,5.49,0,0,10
-19.23,-16.66,1009.46,-2.69,0,-6.1,0,0,10
-18.49,-13.92,1010.93,2.44,0.49,0.49,0,0,10
-18.49,-13.92,1010.93,-1.46,3.78,-3.54,0,0,10
-21.42,-13.37,1013.85,2.69,5.25,-2.69,0,0,10
-21.42,-13.37,1013.85,-1.59,2.81,-8.79,0,0,10
-21.79,-15.38,1013.85,5.86,-3.91,-2.08,0,0,10
-21.79,-15.38,1013.85,-1.34,6.47,-8.79,0,0,10
-21.06,-17.4,1016.78,-1.83,-0.24,0.73,0,0,11
-21.06,-17.4,1016.78,2.32,-4.39,-4.15,0,0,10
-22.16,-20.51,1013.67,-4.27,-0.85,-4.39,0,0,10
-22.16,-20.51,1013.67,-6.23,-2.93,9.28,0,0,10
-23.99,-23.99,1011.66,1.83,3.05,4.15,0,0,11
-23.99,-23.99,1011.66,2.44,6.84,6.59,0,0,10
-24.17,-28.56,1011.84,-0.24,7.57,-0.37,0,0,10
-24.17,-28.56,1011.84,1.46,1.22,3.66,0,0,10
-26.73,-30.21,1012.94,-1.1,0.12,4.39,0,0,10
-26.73,-30.21,1012.94,4.15,3.05,6.47,0,0,11
-29.11,-30.4,1010.19,-0.37,-0.98,0.24,0,0,9
-29.11,-30.4,1010.19,4.64,5.86,1.95,0,0,10
-32.23,-26.73,1010.74,-2.08,1.83,0.85,0,0,10
-32.23,-26.73,1010.74,-1.22,0,-2.08,0,0,10
-34.42,-28.2,1011.11,6.84,1.59,2.44,0,0,10
-34.42,-28.2,1011.11,1.83,5.13,6.1,0,0,10
-34.97,-27.1,1011.84,2.44,-0.49,-3.3,0,0,10
-34.97,-27.1,1011.84,-1.46,3.66,5.49,0,0,10
-34.79,-24.9,1013.67,2.32,2.2,-3.42,0,0,10
-34.79,-24.9,1013.67,0.85,1.83,2.2,0,0,11
-36.07,-24.9,1013.67,2.2,-2.56,-4.88,0,0,10
-32.04,-22.89,1011.47,-1.46,6.1,-1.71,0,0,10
-32.04,-22.89,1011.47,0,-3.54,3.91,0,0,10
-31.31,-22.16,1010.19,2.56,-5.62,0.37,0,0,10
-31.31,-22.16,1010.19,0.98,-1.83,-7.08,0,0,10
-28.02,-23.07,1011.84,5,-0.49,-5.74,0,0,10
-28.02,-23.07,1011.84,-5.49,-2.44,-4.52,0,0,11
-28.2,-22.16,1012.39,0.24,-6.59,-4.76,0,0,10
-28.2,-22.16,1012.39,1.71,7.81,5.62,0,0,10
-28.2,-22.16,1012.39,3.78,3.42,-1.83,0,0,10
-28.2,-22.16,1012.39,1.95,2.44,-9.52,0,0,10
-21.61,-17.76,1011.11,-4.76,1.22,1.83,0,0,10
-21.61,-17.76,1011.11,1.71,2.2,4.88,0,0,10
-22.34,-19.59,1012.76,0.98,3.05,-3.17,0,0,9
-22.34,-19.59,1012.76,1.1,-3.05,0.37,0,0,10
-19.41,-18.31,1011.29,4.52,-3.54,-0.61,0,0,10
-19.41,-18.31,1011.29,1.46,-8.3,-5.49,0,0,10
-19.23,-15.38,1010.74,-1.22,-3.54,1.59,0,0,10
-19.23,-15.38,1010.74,-0.37,1.83,4.39,0,0,10
-18.31,-17.21,1011.84,-2.56,1.34,-0.61,0,0,10
-18.31,-17.21,1011.84,0.61,0,1.1,0,0,10
-24.9,-19.78,1013.49,3.42,-6.96,6.1,0,0,10
-24.9,-19.78,1013.49,-7.08,0.61,-2.93,0,0,10
-22.89,-19.96,1011.66,0.73,5.13,2.32,0,0,10
-22.89,-19.96,1011.66,4.03,-1.71,3.42,0,0,10
-24.54,-21.24,1011.29,0.61,-2.81,-12.33,0,0,9
-24.54,-21.24,1011.29,10.13,1.59,0,0,0,10
-27.47,-22.89,1011.11,-0.85,-2.44,-5,0,0,10
-27.47,-22.89,1011.11,3.3,0.85,5.74,0,0,10
-30.03,-23.99,1008.91,0,5.49,7.32,0,0,9
-30.03,-23.99,1008.91,-0.37,-2.56,-4.27,0,0,10
-28.93,-23.25,1011.47,2.56,-2.93,-7.08,0,0,10
-28.93,-23.25,1011.47,5.62,-5.37,-5.98,0,0,11
-31.13,-24.9,1012.39,0.49,0.61,2.69,0,0,10
-31.13,-24.9,1012.39,-0.85,-4.03,-2.44,0,0,11
-30.03,-26.92,1011.47,-5.74,-3.66,5.13,0,0,10
-30.03,-26.92,1011.47,-1.1,-0.49,0.85,0,0,10
-32.78,-26,1014.77,-5.13,-1.1,1.95,0,0,10
-32.78,-26,1014.77,-2.56,-0.85,-3.3,0,0,10
-33.51,-26.92,1011.29,0.73,1.34,-6.59,0,0,10
-33.51,-26.92,1011.29,8.54,-8.91,1.34,0,0,10
-34.79,-27.28,1010.01,-1.95,6.71,3.17,0,0,10
-34.79,-27.28,1010.01,1.71,-2.56,-2.69,0,0,10
-34.79,-27.28,1010.01,2.32,-7.81,2.32,0,0,10
-31.13,-25.63,1011.47,-2.93,-2.32,-0.98,0,0,10
-31.13,-25.63,1011.47,-1.34,-4.03,-0.12,0,0,10
-30.58,-24.17,1011.29,5.37,-1.83,4.64,0,0,10
-30.58,-24.17,1011.29,-0.24,2.08,2.69,0,0,10
-30.03,-23.62,1012.02,2.93,-0.61,-2.08,0,0,10
-30.03,-23.62,1012.02,2.81,0.12,7.08,0,0,10
-30.03,-23.62,1012.02,-0.73,-0.61,-6.23,0,0,10
-30.03,-23.62,1012.02,1.1,0.24,3.05,0,0,10
-23.8,-22.16,1010.93,8.3,-3.66,-0.61,0,0,10
-23.8,-22.16,1010.93,2.56,-3.91,-2.93,0,0,10
-21.24,-21.79,1011.11,0.12,5.37,-6.84,0,0,10
-21.24,-21.79,1011.11,4.76,7.32,-3.05,0,0,10
-21.24,-21.79,1011.11,1.83,0,3.05,0,0,11
-21.24,-21.79,1011.11,-3.91,-4.15,-9.28,0,0,10
-21.97,-17.4,1010.19,0.85,3.17,2.93,0,0,10
-21.97,-17.4,1010.19,2.08,2.08,2.81,0,0,10
-21.42,-18.49,1009.83,6.47,-6.96,0.37,0,0,10
-21.42,-18.49,1009.83,0.85,-2.2,4.15,0,0,11
-21.61,-18.86,1010.38,-0.85,-1.59,-0.37,0,0,10
-21.61,-18.86,1010.38,-1.71,3.05,-6.84,0,0,10
-24.35,-20.51,1011.11,1.95,1.71,5.98,0,0,10
-24.35,-20.51,1011.11,1.59,-0.61,-2.93,0,0,10
-25.27,-19.23,1010.01,0.12,-5.49,-0.73,0,0,10
-25.27,-19.23,1010.01,1.34,1.95,4.03,0,0,11
-24.17,-18.49,1012.02,-2.93,-4.03,-0.49,1,0,10
-24.17,-18.49,1012.02,4.52,2.93,-2.2,0,0,10
-24.54,-19.59,1011.11,-5.98,3.54,-11.11,0,0,10
-24.54,-19.59,1011.11,-2.44,-5.25,-4.52,0,0,11
-28.93,-21.97,1010.56,2.44,0.49,3.17,0,0,10
-28.93,-21.97,1010.56,6.71,-3.91,-4.76,-1,0,10
-28.93,-21.97,1010.56,1.95,-3.05,-3.91,0,0,10
-28.93,-21.97,1010.56,4.76,2.81,13.55,0,0,10
-32.78,-23.44,1010.93,-6.23,3.3,-1.83,0,0,10
-32.78,-23.44,1010.93,-0.49,2.56,3.66,0,0,11
-34.24,-24.9,1011.47,-4.03,3.42,-3.3,0,0,10
-34.24,-24.9,1011.47,1.59,6.35,6.1,0,0,10
-32.04,-26,1011.84,0.85,-3.66,-7.69,0,0,10
-32.04,-26,1011.84,-4.76,-1.22,3.3,0,0,10
-32.04,-26,1010.19,0,1.34,3.66,0,0,10
-32.04,-26,1010.19,-3.78,-6.23,3.05,0,0,10
-32.04,-26,1010.19,0,2.32,3.54,0,0,10
-32.96,-25.82,1011.66,0.61,0.49,0.12,0,0,10
-32.96,-25.82,1011.66,5.98,-4.88,9.52,0,0,10
-31.13,-26.37,1012.57,-5.25,-1.46,-3.66,0,0,10
-31.13,-26.37,1012.57,6.23,-3.17,10.99,0,0,10
-26.73,-25.82,1011.11,0,1.1,-5.74,0,0,10
-26.73,-25.82,1011.11,2.2,-0.37,-0.98,0,0,10
-26.73,-25.82,1011.11,0.12,1.71,8.06,0,0,11
-26.73,-25.82,1011.11,-1.95,5.49,2.93,0,0,10
-25.27,-22.71,1008.36,9.64,-2.81,-4.76,0,0,11
-25.27,-22.71,1008.36,3.17,-2.32,-4.27,0,0,10
-22.71,-21.42,1010.38,-5,-2.08,0.61,0,0,10
-22.71,-21.42,1010.38,-2.56,2.56,-12.45,0,0,10
-23.62,-24.17,1007.81,-11.96,2.08,-4.27,0,0,10
-23.62,-24.17,1007.81,0.12,-2.2,0.85,0,0,10
-23.62,-20.69,1008.91,0.73,2.69,-1.83,0,0,10
-23.62,-20.69,1008.91,-6.84,-2.81,-3.42,0,0,10
-23.8,-19.59,1010.19,-3.42,2.93,-0.98,0,0,11
-23.8,-19.59,1010.19,-2.08,-1.46,0,0,0,9
-23.99,-20.69,1008.36,2.81,3.78,5.25,0,0,10
-23.99,-20.69,1008.36,-1.83,2.93,3.05,0,0,11
-22.89,-21.24,1010.38,-5.62,1.71,-7.08,0,0,10
-22.89,-21.24,1010.38,-1.1,3.42,-2.32,0,0,10
-25.27,-20.69,1010.01,-5.98,-1.46,-1.95,0,0,10
-25.27,-20.69,1010.01,-1.95,3.17,0.49,0,0,11
-27.47,-22.52,1006.16,-6.35,-7.81,-5.98,0,0,10
-27.47,-22.52,1006.16,0.37,-3.05,2.93,0,0,10
-27.83,-22.89,1010.56,-0.61,1.95,7.81,0,0,10
-27.83,-22.89,1010.56,-2.44,0.85,-0.85,0,0,10
-29.48,-22.16,1013.31,2.08,1.59,7.45,0,0,10
-29.48,-22.16,1013.31,-0.98,-0.12,1.1,0,0,10
-29.48,-22.16,1013.31,1.59,-4.39,3.54,0,0,9
-29.48,-22.16,1013.31,-0.98,5.86,0.85,0,0,10
-30.94,-23.8,1010.01,-5.37,-2.56,5.74,0,0,10
-30.94,-23.8,1010.01,3.05,-6.35,3.54,0,0,10
-32.23,-26.37,1009.28,-6.71,-5,5.86,0,0,10
-32.23,-26.37,1009.28,4.39,4.15,-0.73,0,0,10
-32.23,-27.65,1011.11,-2.81,0.49,-2.08,0,0,10
-32.23,-27.65,1011.11,1.83,1.46,2.93,0,0,10
-32.41,-28.93,1012.94,1.83,1.71,5.62,0,0,10
-32.41,-28.93,1012.94,0.49,-0.73,-14.65,0,0,10
-32.78,-27.83,1011.29,1.83,-2.32,8.18,0,0,9
-32.04,-30.4,1011.47,0.85,-0.85,-2.44,0,0,10
-32.04,-30.4,1011.47,-0.37,-4.39,-7.69,0,0,10
-29.66,-27.28,1010.56,-4.27,2.44,-3.42,0,0,10
-29.66,-27.28,1010.56,-3.54,-1.83,-5.49,0,0,10
-26,-27.1,1008.54,-2.69,1.95,-2.56,0,0,10
-26,-27.1,1008.54,3.42,-0.85,4.52,0,0,10
-26,-27.1,1008.54,0.73,-4.88,3.05,0,0,11
-26,-27.1,1008.54,1.46,3.17,3.05,0,0,10
-26,-27.1,1008.54,-4.15,-2.44,-0.49,0,0,10
-26,-27.1,1008.54,2.2,2.08,2.2,0,0,10
-27.83,-24.17,1012.57,0.85,5.37,0,0,0,10
-27.83,-24.17,1012.57,3.05,-2.2,14.04,0,0,10
-24.72,-20.87,1009.64,1.34,-0.12,4.39,0,0,10
-24.72,-20.87,1009.64,0,-2.08,-0.73,0,0,11
-23.62,-18.86,1009.46,-1.34,3.3,-3.78,0,0,10
-23.62,-18.86,1009.46,-2.2,0.12,-0.98,0,0,10
-24.54,-17.94,1011.11,-6.1,-0.24,-5.86,0,0,10
-24.54,-17.94,1011.11,-1.95,-1.59,-2.44,0,0,10
-25.45,-17.21,1010.93,4.76,0,4.52,0,0,11
-25.45,-17.21,1010.93,1.46,1.83,-3.54,0,0,10
-24.35,-16.85,1011.47,-0.73,-2.32,13.06,0,0,10
-24.35,-16.85,1011.47,1.22,3.54,2.44,0,0,10
-25.09,-17.03,1011.47,-5,-3.17,3.3,0,0,9
-25.09,-17.03,1011.47,3.05,-5.86,0.61,0,0,10
-25.27,-17.21,1009.46,1.1,2.56,4.52,0,0,10
-25.27,-17.21,1009.46,0.73,3.42,-15.99,0,0,10
-25.45,-21.79,1009.83,-7.57,2.56,-0.61,0,0,10
-25.45,-21.79,1009.83,-1.83,3.54,0.61,0,0,10
-27.47,-21.24,1012.94,0.85,-2.93,-4.88,0,0,10
-27.47,-21.24,1012.94,3.66,1.95,-1.46,0,0,11
-26,-21.06,1011.66,5.13,-2.32,-0.37,0,0,10
-26,-21.06,1011.66,0.37,-1.95,2.32,0,0,11
-29.48,-24.9,1010.74,-6.23,-5.25,-1.59,0,0,10
-29.48,-24.9,1010.74,11.72,-3.54,-2.81,0,0,11
-28.75,-22.71,1010.38,4.27,4.52,5.98,0,0,10
-28.75,-22.71,1010.38,1.22,0.37,-5,0,0,10
-30.4,-25.09,1011.84,9.52,3.66,1.1,0,0,10
-30.4,-25.09,1011.84,-0.37,2.93,-0.85,0,0,10
-29.48,-27.47,1010.74,-6.1,3.91,-10.74,0,0,11
-29.48,-27.47,1010.74,2.81,0,-3.17,0,0,10
-31.68,-26.37,1011.47,1.83,-1.34,-3.42,0,0,10
-31.68,-26.92,1012.57,7.57,2.2,1.71,0,0,10
-31.68,-26.92,1012.57,-0.24,-2.44,-9.03,1,0,10
-29.48,-27.1,1010.93,4.64,5.13,3.3,0,0,9
-29.48,-27.1,1010.93,2.44,4.03,12.57,0,0,10
-28.93,-26.73,1010.01,-1.95,-2.44,7.32,0,0,10
-28.93,-26.73,1010.01,6.47,0.49,-0.73,0,0,9
-28.93,-26.73,1010.01,0,2.56,-4.27,-1,0,11
-28.93,-26.73,1010.01,-2.32,3.05,-0.73,0,0,10
-28.93,-26.73,1010.01,5.98,-2.56,-3.05,0,0,10
-28.93,-26.73,1010.01,-6.84,-4.88,-7.93,0,0,10
-25.63,-21.97,1012.39,0.85,-6.47,7.45,0,0,10
-25.63,-21.97,1012.39,-1.95,5,4.39,0,0,10
-20.69,-17.21,1009.64,-3.54,1.83,-1.1,0,0,11
-20.69,-17.21,1009.64,4.88,3.91,8.79,0,0,10
-26.92,-19.59,1012.57,1.22,-3.78,1.34,0,0,11
-26.92,-19.59,1012.57,4.39,8.18,0.98,1,0,10
-22.34,-17.94,1012.02,-1.71,1.71,3.42,0,0,10
-22.34,-17.94,1012.02,-2.81,-2.08,-0.73,0,0,10
-19.96,-14.1,1013.85,0.37,-5.62,6.23,0,0,11
-19.96,-14.1,1013.85,0.49,3.05,-8.3,0,0,10
-12.45,-10.44,1014.95,-0.98,-2.44,-1.1,0,0,10
-12.45,-10.44,1014.95,-6.23,-3.78,-3.05,0,0,10
20.87,-10.07,1012.21,-2.32,-0.73,-8.42,0,0,10
20.87,-10.07,1012.21,4.15,0,-1.83,0,0,10
-20.14,-1.83,1010.19,-6.1,-8.67,-5.62,0,0,10
-20.14,-1.83,1010.19,-4.27,3.78,-9.4,-1,0,10
-3.66,-16.66,1010.19,5.74,5.86,5.37,0,0,10
-3.66,-16.66,1010.19,-0.98,-4.39,-6.47,0,0,10
-22.71,-7.87,1010.74,-2.93,-0.85,-2.44,1,0,10
-22.71,-7.87,1010.74,5.74,4.76,8.3,0,0,10
-52.55,-27.1,1010.93,1.95,-8.18,-6.59,0,0,10
-52.55,-27.1,1010.93,4.03,-1.46,-7.93,0,0,10
-34.06,-37.35,1010.19,1.83,1.83,8.42,0,0,11
-34.06,-37.35,1010.19,-0.12,0,-0.37,-1,0,10
-64.64,-23.44,1009.46,-4.03,-5.86,-10.38,0,0,10
-64.64,-23.44,1009.46,1.34,2.56,-0.61,0,0,10
-71.23,-34.97,1012.94,1.1,-4.15,6.35,0,0,10
-71.23,-34.97,1012.94,-1.34,1.22,8.91,0,0,10
-45.59,-32.41,1010.74,1.46,-0.85,3.42,0,0,10
-45.59,-32.41,1010.74,-3.3,2.44,-9.16,0,0,10
-55.85,-30.58,1014.4,-1.83,-1.71,-4.39,0,0,10
-41.2,-41.02,1012.94,-0.12,-0.37,-0.24,0,0,10
-41.2,-41.02,1012.94,-4.88,-0.24,-3.42,0,0,10
-21.61,-23.07,1010.56,-0.73,-3.66,7.69,0,0,11
-21.61,-23.07,1010.56,-2.2,-1.71,-3.54,0,0,10
-26.18,-17.76,1012.21,3.91,-0.73,-1.1,0,0,10
-26.18,-17.76,1012.21,5.25,5,-1.22,0,0,10
-5.49,-19.59,1011.66,3.78,-4.15,-3.66,0,0,10
-5.49,-19.59,1011.66,-4.03,-4.52,-9.89,0,0,10
-5.49,-19.59,1011.66,-2.93,0.73,5.74,0,0,10
-5.49,-19.59,1011.66,-2.08,1.46,-5.37,0,0,10
-29.85,-26.73,1015.14,2.08,0.61,-2.44,0,0,10
-29.85,-26.73,1015.14,4.64,4.03,-7.81,0,0,10
-65.92,-13,1012.57,-1.71,-10.13,3.3,0,0,10
-65.92,-13,1012.57,2.32,-2.2,4.64,0,0,11
-58.96,-18.13,1008.18,2.08,1.95,7.2,0,0,10
-58.96,-18.13,1008.18,-1.22,5.37,0.37,0,0,10
-93.75,-18.49,1007.26,1.1,8.67,6.84,0,0,10
-93.75,-18.49,1007.26,1.1,8.54,5.13,0,0,10
-51.45,0.55,1010.56,-1.34,-4.03,-2.32,0,0,10
-51.45,0.55,1010.56,2.69,-0.61,3.54,0,0,10
-59.69,-10.25,1014.04,0.61,0.73,1.71,0,0,10
-59.69,-10.25,1014.04,1.59,5.13,15.63,0,0,10
-29.3,-10.44,1017.33,0.85,-4.39,-0.12,0,0,10
-29.3,-10.44,1017.33,-5.98,0.61,-11.11,0,0,10
6.77,-19.41,1011.11,-3.54,-2.81,-7.45,0,0,10
6.77,-19.41,1011.11,-2.69,-2.81,-4.15,0,0,10
25.45,-59.14,1003.78,3.66,-4.76,-1.95,0,0,10
25.45,-59.14,1003.78,-1.22,3.42,1.71,0,0,11
33.69,-72.88,1015.87,0.85,-3.54,1.1,0,0,10
33.69,-72.88,1015.87,-2.56,-2.2,0.24,0,0,11
40.28,-76.54,1022.46,2.2,3.05,-0.12,0,0,10
40.28,-76.54,1022.46,3.17,1.46,5.74,0,0,10
29.48,-75.99,1014.77,0,-3.05,2.81,0,0,10
29.48,-75.99,1014.77,3.17,-1.1,-2.44,0,0,10
14.65,-69.4,1008.18,-2.08,-6.59,0,0,0,10
14.65,-69.4,1008.18,2.44,2.08,1.46,0,0,10
-5.68,-46.14,1008.18,0.73,2.32,2.08,0,0,11
-5.68,-46.14,1008.18,-1.71,-4.64,-3.05,0,0,10
-33.87,-29.85,1008.73,1.83,5.13,-6.71,0,0,10
-33.87,-29.85,1008.73,3.91,0.12,-6.71,0,0,10
-46.33,-6.59,1014.77,4.39,-5.25,5.25,0,0,10
-56.03,8.61,1011.11,-2.93,4.52,-3.3,0,0,10
-56.03,8.61,1011.11,7.81,-0.49,4.76,0,0,9
-58.78,-8.42,1007.63,4.64,6.47,7.69,0,0,10
-58.78,-8.42,1007.63,2.81,5.37,5.37,0,0,10
-55.11,-8.42,1003.42,7.32,-12.21,3.3,0,0,10
-55.11,-8.42,1003.42,0.98,-2.56,-6.71,0,0,10
-55.3,14.28,1008.54,3.91,6.23,-0.85,0,0,10
-55.3,14.28,1008.54,-1.1,4.64,-2.44,0,0,10
-55.3,14.28,1008.54,2.32,-3.54,-3.17,0,0,10
-55.3,14.28,1008.54,1.83,0.24,-2.81,0,0,10
-16.85,-3.11,1012.94,2.44,-5.86,-1.83,0,0,10
-16.85,-3.11,1012.94,-2.2,8.54,4.52,0,0,10
-27.1,5.68,1011.29,2.81,0.61,3.3,0,0,10
-27.1,5.68,1011.29,4.88,0,-1.22,0,0,10
-30.76,-5.86,1005.25,10.38,5.37,0.73,0,0,10
-30.76,-5.86,1005.25,-0.98,3.17,-11.35,0,0,10
-35.34,6.77,1010.74,-4.03,1.46,-4.88,0,0,11
-35.34,6.77,1010.74,-3.54,-2.81,-3.78,0,0,10
-41.93,11.9,1012.57,2.44,1.46,2.93,0,0,10
-41.93,11.9,1012.57,-2.44,7.69,-6.23,0,0,10
-48.16,-2.56,1007.26,1.34,-3.54,-3.05,0,0,10
-48.16,-2.56,1007.26,7.2,-2.56,1.22,0,0,10
-51.82,-8.61,1011.29,-2.69,1.59,-3.42,0,0,10
-51.82,-8.61,1011.29,0,4.15,-1.95,0,0,10
-46.14,-3.3,1009.46,1.22,-4.27,4.27,0,0,10
-46.14,-3.3,1009.46,2.69,-0.73,5.98,0,0,11
-32.41,-15.38,1012.57,0.12,-0.98,-5.49,0,0,10
-32.41,-15.38,1012.57,-4.76,-10.38,-0.73,0,0,10
-14.65,-13.73,1013.67,-1.95,1.22,-8.18,0,0,10
-14.65,-13.73,1013.67,5.74,-7.69,9.28,0,0,11
-9.52,-38.09,1009.46,3.66,-2.93,6.47,0,0,10
-9.52,-38.09,1009.46,4.88,3.66,10.13,0,0,11
8.42,-48.52,1011.29,-2.2,1.95,2.08,0,0,10
8.42,-48.52,1011.29,-3.66,4.39,-3.17,0,0,10
22.16,-35.89,1011.66,0.24,-1.71,2.93,0,0,10
22.16,-35.89,1011.66,1.71,-1.1,-0.37,0,0,11
5.49,-40.83,1016.97,-3.17,-0.24,6.59,0,0,11
5.49,-40.83,1016.97,4.52,-4.15,9.77,0,0,11
-17.21,-44.31,1012.76,-0.61,-2.08,4.39,0,0,9
-17.21,-44.31,1012.76,-4.39,0.61,1.71,0,0,10
-30.03,-30.03,1012.94,2.32,1.34,2.81,0,0,10
-30.03,-30.03,1012.94,-1.59,-5.86,10.38,0,0,10
-30.03,-30.03,1012.94,-1.95,4.52,3.91,0,0,10
-78.74,-19.59,1007.08,4.03,3.54,11.47,0,0,10
-78.74,-19.59,1007.08,0,-7.93,-4.39,0,0,10
-65,-6.23,1015.32,4.64,2.93,5.25,0,0,10
-65,-6.23,1015.32,-0.24,-8.18,8.3,0,0,10
-50.9,-19.23,1013.12,6.35,-4.52,4.64,0,0,10
-50.9,-19.23,1013.12,-0.37,-2.32,4.64,0,0,10
-50.9,-19.23,1013.12,-1.95,-1.1,-1.46,0,0,11
-50.9,-19.23,1013.12,1.22,0.85,1.71,0,0,10
22.16,-50.54,1008.91,1.46,0.24,-7.08,0,0,10
22.16,-50.54,1008.91,1.46,2.93,-2.08,0,0,10
30.21,-45.96,1014.22,2.56,-2.81,-6.59,0,0,10
30.21,-45.96,1014.22,-0.24,0.12,-5.98,0,0,10
30.76,-48.89,1014.22,0.24,9.52,-6.84,0,0,9
30.76,-48.89,1014.22,5.13,-2.56,9.16,0,0,10
-25.82,-12.08,1011.66,-1.22,2.32,-2.93,0,0,10
-25.82,-12.08,1011.66,-3.91,-3.17,-9.89,0,0,10
-68.66,2.38,1012.02,-6.84,-8.3,-12.94,0,0,11
-68.66,2.38,1012.02,4.76,1.71,1.34,0,0,10
-85.88,15.01,1003.78,3.42,-1.83,-0.49,0,0,10
-85.88,15.01,1003.78,4.52,-4.03,-2.81,0,0,10
-151.43,32.59,1012.39,-3.91,-7.2,-3.05,0,0,10
-151.43,32.59,1012.39,-0.85,1.95,10.62,0,0,10
-135.5,5.31,1011.84,0.12,-1.83,-0.24,0,0,10
-135.5,5.31,1011.84,-2.81,-6.96,0.12,0,0,10
-116.46,-10.25,1018.8,0.85,2.08,6.84,0,0,10
-116.46,-10.25,1018.8,3.78,0,11.11,0,0,10
-112.79,-36.44,1013.67,4.27,-7.2,9.28,0,0,10
-112.79,-36.44,1013.67,5.25,2.93,4.88,0,0,10
-96.5,-81.85,1010.56,-1.34,-1.22,-1.59,0,0,10
-96.5,-81.85,1010.56,6.59,-7.81,1.59,0,0,10
-96.5,-81.85,1010.56,2.08,-0.37,10.25,0,0,10
-96.5,-81.85,1010.56,-0.49,-8.67,-7.81,0,0,11
-128.54,-84.41,1027.77,2.81,-6.71,-14.16,0,1,10
-128.54,-84.41,1027.77,8.67,-5.49,1.46,0,0,10
-157.1,-127.08,1052.12,-0.73,-6.96,-6.84,-1,1,11
-157.1,-127.08,1052.12,-0.37,-13.67,-3.3,1,1,10
-170.47,-108.95,1063.11,7.32,-10.25,2.56,-1,0,10
-170.47,-108.95,1063.11,1.83,-5.25,-10.5,-1,1,10
-191.16,-62.81,1040.95,-3.42,-12.21,6.59,0,0,9
-191.16,-62.81,1040.95,10.25,-11.72,0.61,0,0,11
-212.22,-63.9,1025.94,2.2,-8.42,0.24,-2,0,11
-182.56,-49.62,1017.88,2.44,-8.91,0.61,0,0,10
-182.56,-49.62,1017.88,8.79,-10.01,-5.62,0,0,11
-162.78,-1.83,1021.73,2.69,-11.96,-3.54,0,0,10
-162.78,-1.83,1021.73,8.3,-14.28,5.25,0,0,11
-145.57,9.89,1036.93,-3.78,-13.67,-4.39,1,-1,10
-145.57,9.89,1036.93,4.39,-14.28,-6.71,2,0,11
-145.57,9.89,1036.93,-0.98,-14.53,-6.84,0,0,10
-145.57,9.89,1036.93,-1.59,-12.21,-0.85,1,0,11
-138.43,50.54,1044.62,-1.1,-18.8,7.81,-1,0,10
-138.43,50.54,1044.62,6.35,-11.47,6.84,1,1,11
-125.98,96.5,1035.83,6.71,-16.85,8.54,0,0,11
-125.98,96.5,1035.83,2.69,-17.21,-4.03,0,0,11
-157.84,67.02,1013.12,2.81,-18.19,4.15,-2,0,11
-157.84,67.02,1013.12,2.44,-23.93,1.34,2,0,11
-171.02,53.65,1006.9,4.64,-17.21,-3.3,4,0,11
-171.02,53.65,1006.9,-0.85,-19.53,-0.12,0,0,11
-121.03,62.62,1010.93,2.93,-15.75,-1.71,5,0,11
-121.03,62.62,1010.93,0.61,-18.55,2.93,6,0,11
-99.06,1.83,1021.36,-1.71,-22.22,2.2,5,0,11
-99.06,1.83,1021.36,0.85,-17.21,-6.96,0,0,10
-69.4,-6.59,1023.38,-1.46,-26.25,-3.54,0,1,11
-69.4,-6.59,1023.38,0.24,-25.76,5.86,-1,1,11
-44.31,-23.62,1013.67,2.93,-20.75,5.25,-1,2,11
-44.31,-23.62,1013.67,-2.56,-19.9,-2.81,-2,1,11
-29.85,-52.37,1007.81,1.34,-29.54,0,0,0,11
-29.85,-52.37,1007.81,7.57,-23.44,-3.05,0,0,12
-23.25,-52,1004.7,-7.45,-22.34,2.56,0,0,12
-23.25,-52,1004.7,0,-22.09,-3.05,0,0,11
-3.3,-60.61,1000.67,5.49,-22.46,0.61,0,0,11
-3.3,-60.61,1000.67,-4.03,-18.43,7.45,0,0,11
-3.3,-60.61,1000.67,5.25,-24.05,-5.86,0,0,11
-3.3,-60.61,1000.67,1.83,-24.29,0.49,0,0,12
-1.65,-37.72,1010.74,5.74,-22.22,6.71,-1,1,12
-1.65,-37.72,1010.74,6.71,-15.75,6.35,0,0,12
-9.16,-22.16,1005.07,4.52,-24.78,5.62,1,1,12
-9.16,-22.16,1005.07,-0.98,-23.19,7.08,2,1,12
-16.85,2.56,994.45,-0.49,-25.39,4.39,1,2,12
-16.85,2.56,994.45,-1.95,-18.92,3.3,0,0,12
-8.42,-2.93,994.45,-1.83,-27.34,2.32,2,2,12
-8.42,-2.93,994.45,2.32,-21.61,-2.93,0,0,12
4.39,4.21,1003.23,2.44,-21.12,7.08,-2,1,12
19.23,6.23,1006.16,1.83,-25.02,9.89,0,2,12
19.23,6.23,1006.16,1.22,-27.47,8.18,0,0,12
29.66,3.66,999.76,-2.32,-23.07,11.11,0,1,12
29.66,3.66,999.76,5.86,-21.48,4.64,0,3,12
37.54,1.83,991.88,-0.98,-22.22,2.56,0,1,12
37.54,1.83,991.88,-1.95,-22.34,13.31,0,0,12
37.54,1.83,991.88,5.74,-29.79,3.54,0,0,12
37.54,1.83,991.88,0.12,-26.86,6.84,1,0,11
37.54,1.83,991.88,-2.2,-28.32,-1.59,0,0,11
37.54,1.83,991.88,-3.54,-24.78,7.45,1,2,12
59.69,-22.16,1004.52,0,-24.29,12.08,0,0,13
59.69,-22.16,1004.52,1.22,-21.73,-9.64,4,2,13
52.19,-28.2,1001.4,0.12,-24.9,-5.49,5,1,12
52.19,-28.2,1001.4,-2.44,-26.86,3.54,4,2,12
58.04,-29.48,988.95,0.85,-25.27,2.32,0,0,12
58.04,-29.48,988.95,5.62,-21.61,10.86,4,0,13
70.68,-30.4,989.14,2.56,-24.17,5.98,0,1,12
70.68,-30.4,989.14,5,-22.46,9.89,0,1,12
88.26,-15.93,994.81,-4.15,-27.34,-8.79,0,2,12
88.26,-15.93,994.81,4.15,-26.86,16.36,0,0,13
99.24,-2.2,993.9,4.27,-18.31,6.47,0,1,12
99.24,-2.2,993.9,-5.49,-22.22,-4.64,0,0,12
101.07,6.04,985.47,1.1,-24.05,6.96,0,0,12
101.07,6.04,985.47,-4.03,-25.63,6.71,-1,0,12
110.05,10.99,978.88,-0.98,-22.71,-1.83,0,0,12
110.05,10.99,978.88,-2.81,-22.34,3.91,0,0,12
109.5,14.1,977.42,0.85,-22.34,4.52,0,1,11
109.5,14.1,977.42,3.91,-20.63,2.44,-1,0,13
117.37,10.44,985.47,-1.46,-24.29,-0.37,0,0,13
117.37,10.44,985.47,4.03,-26.73,0.61,0,1,13
135.5,4.58,992.61,-1.22,-26.12,0,-1,0,11
135.5,4.58,992.61,-0.73,-26.49,-0.98,-3,1,12
142.46,-3.66,990.42,1.83,-22.58,-5.49,-4,0,12
142.46,-3.66,990.42,-4.27,-23.56,-0.49,0,0,13
151.25,-8.24,983.46,1.1,-24.17,-8.79,0,0,11
151.25,-8.24,983.46,-0.73,-26.86,-2.69,-4,0,12
166.08,-12.45,976.68,-0.37,-25.76,1.1,-1,0,13
166.08,-12.45,976.68,2.32,-31.25,7.2,0,0,13
161.87,-15.2,971.19,-1.34,-27.34,-2.32,0,0,12
161.87,-15.2,971.19,-0.98,-24.54,6.96,-2,1,13
165.34,-16.66,978.52,0,-22.83,-4.52,0,0,13
175.78,-15.93,987.12,-3.78,-21.73,1.59,0,0,12
175.78,-15.93,987.12,2.93,-27.47,-15.5,0,0,12
165.53,-20.69,982.54,0,-24.9,3.54,0,1,13
165.53,-20.69,982.54,-0.12,-19.17,4.64,-1,0,12
161.13,-20.87,976.32,-5.62,-24.29,-4.76,0,0,13
161.13,-20.87,976.32,-2.32,-21.12,-8.67,0,0,12
161.13,-20.87,976.32,-0.98,-23.68,3.3,0,1,12
161.13,-20.87,976.32,1.83,-26.25,0.37,0,0,12
161.13,-20.87,976.32,-1.22,-22.22,-5.25,0,0,13
161.13,-20.87,976.32,-1.1,-20.51,-7.81,-2,-1,14
205.99,1.83,979.61,6.71,-27.83,-0.49,0,0,12
205.99,1.83,979.61,3.66,-17.82,1.46,-4,-2,13
221.01,1.83,980.16,11.47,-19.17,14.16,-3,-1,14
221.01,1.83,980.16,0.49,-22.09,-0.24,-4,-2,12
225.4,7.69,979.61,-3.91,-24.9,0.49,0,0,12
225.4,7.69,979.61,-3.54,-30.52,-9.03,-1,0,12
234.19,8.79,972.29,-6.47,-24.54,-7.45,0,0,12
234.19,8.79,972.29,-2.56,-26.49,9.28,0,0,13
228.33,-5.13,969.54,1.34,-18.92,2.93,-1,0,13
228.33,-5.13,969.54,0.12,-18.31,15.14,0,0,13
219.54,-12.63,971.56,-2.2,-21.61,6.59,0,0,13
219.54,-12.63,971.56,-3.66,-17.7,-0.73,0,-1,13
229.43,-19.78,973.57,0.37,-14.89,2.81,0,0,13
229.43,-19.78,973.57,3.54,-15.75,0.73,0,0,13
226.87,-19.23,977.23,-4.03,-17.94,-7.57,0,0,13
226.87,-19.23,977.23,1.95,-17.94,2.32,0,0,13
222.84,-24.35,976.5,0.98,-20.39,5.13,0,1,13
222.84,-24.35,976.5,6.96,-16.36,10.5,0,0,13
221.37,-26,978.33,-0.12,-19.29,0.73,0,0,13
221.37,-26,978.33,1.83,-18.43,5.13,0,1,13
216.43,-22.16,978.52,1.59,-19.41,15.75,0,0,13
216.43,-22.16,978.52,3.42,-20.75,-1.95,-1,1,13
225.59,-34.79,972.66,4.27,-13.31,5.98,0,0,13
225.59,-34.79,972.66,2.81,-19.9,8.67,-3,1,13
227.97,-28.38,977.42,1.95,-12.82,-10.25,-2,1,13
227.97,-28.38,977.42,-5,-23.07,-7.08,-4,0,13
238.95,-37.35,973.02,-3.66,-21.61,-9.16,-2,0,13
238.95,-37.35,973.02,0.85,-13.79,3.66,0,0,13
267.33,-42.48,970.64,4.39,-16.48,-8.3,-1,0,13
267.33,-42.48,970.64,-6.23,-19.04,7.08,-1,0,13
284.91,-46.51,963.13,2.93,-10.38,-3.42,0,0,13
298.1,-45.23,960.02,-1.34,-22.22,1.1,-1,1,13
298.1,-45.23,960.02,0.85,-19.04,-3.05,0,0,14
311.65,-24.9,961.85,-0.73,-21,-2.2,0,0,13
311.65,-24.9,961.85,-5.25,-14.4,4.88,0,0,13
308.9,-23.62,963.5,3.17,-13.06,-1.95,0,0,13
308.9,-23.62,963.5,4.15,-18.19,12.45,0,0,13
307.8,-11.35,966.43,3.17,-10.38,-1.46,0,0,13
307.8,-11.35,966.43,-0.98,-20.39,-2.44,-1,-1,13
307.8,-11.35,966.43,-1.46,-7.45,-3.17,0,0,13
307.8,-11.35,966.43,1.95,-14.28,-9.03,0,0,13
296.45,3.3,961.12,2.44,-12.21,5.62,0,0,14
296.45,3.3,961.12,1.59,-18.8,-5.62,0,1,13
299.93,10.62,964.42,2.93,-13.92,-6.35,0,2,13
299.93,10.62,964.42,5.98,-7.32,-0.37,0,1,13
303.41,5.86,963.5,6.96,-14.04,-2.81,0,0,13
303.41,5.86,963.5,2.2,-16.85,-1.59,-2,0,13
312.01,2.75,960.57,-5.13,-9.77,2.08,0,0,13
312.01,2.75,960.57,-1.83,-15.38,-0.49,0,0,13
316.96,-1.46,957.64,4.76,-13.79,-6.59,0,0,13
316.96,-1.46,957.64,1.46,-3.17,2.69,0,0,13
311.46,-13.55,961.67,-1.1,-4.52,-0.98,0,0,13
311.46,-13.55,961.67,2.44,-11.6,6.59,-2,1,13
308.9,-11.72,966.61,-5.74,-17.21,-3.54,-2,0,14
308.9,-11.72,966.61,-0.12,-11.84,-3.78,0,0,13
305.6,-17.4,968.44,1.22,-7.45,6.96,-3,0,14
305.6,-17.4,968.44,2.44,-6.23,5.62,-1,-1,13
298.1,-13.37,968.81,0.61,-10.62,-8.79,-1,0,13
298.1,-13.37,968.81,-1.46,-6.96,0.24,0,0,14
289.86,-2.75,965.33,7.69,-10.13,-0.61,0,0,13
289.86,-2.75,965.33,0.73,-9.52,-2.32,-1,1,14
295.53,-9.52,963.5,-0.49,-8.54,4.64,-1,1,14
295.53,-9.52,963.5,2.93,-3.3,7.93,0,-1,14
307.8,2.93,963.5,-3.54,-7.08,2.32,0,0,14
307.8,2.93,963.5,2.08,-8.06,2.81,0,0,14
320.43,-2.38,960.57,-3.05,-9.4,0,0,0,14
320.43,-2.38,960.57,0,-7.45,4.76,0,0,14
336.55,-14.83,959.11,3.05,-6.71,10.86,-1,0,14
336.55,-14.83,959.11,0.12,-5.13,-0.61,0,0,14
344.6,-7.51,968.63,-1.95,-4.39,-5,0,0,14
344.6,-7.51,968.63,0.37,-6.96,1.34,0,-1,14
338.38,-6.04,968.26,-3.42,-6.84,-0.49,0,0,14
315.12,0.92,963.13,-0.24,-7.69,6.1,0,0,14
315.12,0.92,963.13,-3.78,-2.32,1.83,0,0,14
299.56,14.1,958.74,3.05,-12.94,6.96,0,0,14
299.56,14.1,958.74,0,-4.39,-3.17,0,0,14
287.48,14.83,960.75,1.59,-5.49,-2.32,0,1,14
287.48,14.83,960.75,-1.34,-2.2,-1.95,0,0,14
281.98,14.83,968.08,0.85,-4.27,-3.42,0,0,14
281.98,14.83,968.08,1.83,1.34,5.37,0,0,14
281.98,14.83,968.08,-1.22,-7.57,3.17,-1,0,14
281.98,14.83,968.08,-1.34,-7.57,3.54,0,0,14
292.42,4.21,969.54,4.03,-9.64,8.18,0,0,14
292.42,4.21,969.54,-2.32,-2.69,1.1,0,0,14
292.79,-4.39,961.67,5.25,-5.25,3.91,0,0,14
292.79,-4.39,961.67,-10.62,-4.76,1.59,0,0,14
297.36,-13.18,956.36,-0.98,0.12,4.52,0,0,14
297.36,-13.18,956.36,2.56,-5,-13.92,0,0,13
292.97,-28.02,962.04,-4.03,0,-1.22,0,0,14
292.97,-28.02,962.04,-3.42,-4.03,-8.79,0,0,14
294.62,-31.13,977.78,-8.67,-1.46,0.37,0,0,14
294.62,-31.13,977.78,-1.34,-6.1,13.31,0,0,14
284.55,-34.97,983.09,-0.85,-11.11,-8.79,0,0,14
284.55,-34.97,983.09,-7.81,-9.03,-4.39,0,0,14
267.15,-32.96,975.4,6.23,-3.17,-1.83,0,0,14
267.15,-32.96,975.4,-1.71,-3.66,-2.44,0,0,14
259.46,-23.25,965.7,-7.69,-7.2,-9.52,0,0,14
259.46,-23.25,965.7,4.76,-8.42,-1.95,0,0,14
258.54,-12.27,963.32,-0.61,-3.91,4.76,0,0,14
258.54,-12.27,963.32,2.81,-5,-6.23,0,0,14
264.59,-3.11,969.73,0.61,-4.39,-5.86,0,0,14
264.59,-3.11,969.73,3.3,-2.69,-2.2,0,0,14
267.7,7.32,972.29,9.16,-4.39,1.46,0,0,14
267.7,7.32,972.29,3.54,-2.69,-2.93,0,0,14
266.6,7.87,972.66,-1.22,-2.81,-4.52,0,0,14
266.6,7.87,972.66,4.52,-6.96,-7.45,0,0,14
259.28,6.04,971.92,1.83,-1.83,3.54,0,-1,14
259.28,6.04,971.92,-1.95,-8.91,-10.5,0,-1,14
257.63,3.85,969.54,1.95,-5.98,3.54,0,-1,14
257.63,3.85,969.54,-0.37,-3.05,-5.74,0,0,14
271.18,-0.55,971.74,-3.17,2.44,-0.61,0,0,14
271.18,-0.55,971.74,2.32,3.42,-3.66,-1,-1,14
277.95,-8.24,973.39,4.52,0.24,9.03,0,0,14
277.95,-8.24,973.39,4.15,-8.79,-2.69,0,0,14
277.95,-8.24,973.39,0,-3.78,4.64,0,0,14
299.74,-18.31,962.59,-3.05,-10.38,-4.27,0,0,14
299.74,-18.31,962.59,5,-2.93,-4.39,0,0,14
298.83,-26.55,962.4,0.98,-7.93,0.73,0,0,14
298.83,-26.55,962.4,1.95,-10.13,-5.74,0,0,14
300.84,-23.25,963.5,-1.46,-3.05,0.73,0,0,14
300.84,-23.25,963.5,1.34,-0.85,-0.73,0,1,14
300.84,-23.25,963.5,-2.81,-6.23,-7.08,0,0,14
300.84,-23.25,963.5,-6.59,-4.27,-4.03,0,0,14
278.5,-20.14,970.28,-1.95,-11.11,0,0,0,14
278.5,-20.14,970.28,-1.95,-8.3,1.34,0,1,14
272.09,-16.66,968.26,5,0,4.76,0,0,14
272.09,-16.66,968.26,1.83,-5.25,2.2,0,0,14
271.91,-15.38,968.99,-2.93,-1.22,-7.45,0,0,14
271.91,-15.38,968.99,1.71,-10.99,1.59,0,0,14
279.79,-8.42,970.64,5.13,-1.71,8.42,0,-1,14
279.79,-8.42,970.64,0,0.12,7.69,0,0,14
292.05,-9.34,966.06,3.54,-0.73,2.81,0,0,14
292.05,-9.34,966.06,-0.85,-4.64,10.13,0,0,14
302.31,-8.42,958.92,3.17,-4.03,4.64,0,0,14
302.31,-8.42,958.92,4.15,0,2.44,-2,0,14
308.72,-9.16,958.19,-5.86,0.12,-10.25,-2,-1,14
308.72,-9.16,958.19,-6.71,1.71,-2.81,0,0,14
315.49,-7.32,956.36,-2.2,-5.37,3.66,-2,0,14
315.49,-7.32,956.36,0.61,-11.47,-0.73,-4,0,14
316.59,-13.18,960.02,5.13,1.22,0.37,0,0,14
316.59,-13.18,960.02,3.66,-2.32,-4.52,0,0,14
312.01,-15.2,963.32,-4.52,-3.78,2.44,0,0,14
312.01,-15.2,963.32,-1.34,-11.96,-1.83,-1,0,14
300.11,-9.89,966.98,0.61,-5.98,-2.69,0,0,14
300.11,-9.89,966.98,4.52,-1.34,-5.37,0,-1,14
300.11,-9.89,966.98,-2.08,-6.35,-7.08,0,0,14
300.11,-9.89,966.98,-0.85,-1.83,4.03,-1,0,14
296.08,0.18,962.95,-0.12,-5.13,4.88,0,0,14
296.08,0.18,962.95,0.98,3.3,-1.34,0,0,14
298.46,5.68,963.68,0,0.49,-3.3,0,0,14
298.46,5.68,963.68,-3.91,-0.37,1.46,-1,1,14
307.43,4.76,962.95,-0.49,2.32,-2.44,0,0,14
307.43,4.76,962.95,0.98,0.49,3.42,0,0,14
318.42,2.93,960.94,-7.57,-3.05,4.39,0,0,14
318.42,2.93,960.94,0,-0.37,2.81,0,0,14
318.05,-1.1,959.11,6.35,2.56,6.59,0,0,14
312.19,-8.06,960.02,1.59,-1.46,-3.17,0,0,14
312.19,-8.06,960.02,-0.49,-1.95,1.22,0,0,14
303.96,-6.59,960.57,2.81,-2.44,0.73,0,0,14
303.96,-6.59,960.57,1.46,3.78,3.54,0,0,14
294.07,-7.87,966.8,3.42,8.67,-4.39,1,-1,14
294.07,-7.87,966.8,0.24,-5.62,-0.73,0,-1,14
294.07,-7.87,966.8,1.71,0.85,2.69,0,0,14
294.07,-7.87,966.8,-1.34,-0.37,-7.93,0,0,14
281.25,-6.96,969.54,-0.85,1.22,1.71,0,1,14
281.25,-6.96,969.54,-1.71,-0.49,13.92,-1,1,14
277.04,-4.94,965.33,2.81,6.23,4.76,0,0,14
277.04,-4.94,965.33,7.45,-5.13,-0.73,0,0,14
282.71,-2.93,964.05,4.15,2.56,3.17,0,0,14
282.71,-2.93,964.05,-3.78,2.69,3.91,0,0,14
285.64,3.85,963.68,-1.22,-3.42,-4.03,0,0,14
285.64,3.85,963.68,-1.46,1.83,1.1,0,0,14
285.64,1.83,965.88,5.49,7.2,9.03,0,0,14
285.64,1.83,965.88,2.81,1.71,2.93,0,0,14
286.74,-1.83,964.97,3.3,3.17,1.71,0,0,14
286.74,-1.83,964.97,-3.91,-4.52,15.87,0,0,14
282.53,-8.24,966.25,1.95,0.37,1.83,0,0,14
282.53,-8.24,966.25,-2.32,-4.15,-1.95,0,0,14
271.36,-9.16,968.81,4.52,-1.46,-9.64,0,0,14
271.36,-9.16,968.81,-2.93,-3.3,-2.08,0,-1,14
263.67,-10.62,973.39,0.61,-0.73,-0.49,0,0,14
263.67,-10.62,973.39,7.45,-0.24,4.52,0,0,14
255.07,-6.77,970.46,2.93,-0.61,-2.81,0,0,14
255.07,-6.77,970.46,-3.05,3.42,2.81,0,0,14
251.95,-8.79,969.54,0.37,-0.98,3.54,0,1,14
251.95,-8.79,969.54,0,2.56,-5.25,0,0,14
251.95,-8.79,969.54,-5.49,-1.95,-7.32,0,0,14
251.95,-8.79,969.54,-1.83,-1.83,1.46,0,0,14
263.31,-11.35,966.98,2.08,-6.23,2.81,0,0,14
263.31,-11.35,966.98,-3.54,-7.93,-5.37,0,0,14
273.38,-14.47,968.99,2.69,2.69,0.12,0,0,14
273.38,-14.47,968.99,1.83,-6.84,2.93,0,0,14
278.5,-15.75,966.06,-9.64,0.98,-6.47,0,0,14
278.5,-15.75,966.06,2.08,-3.42,1.34,0,0,14
273.93,-20.69,963.87,-4.03,-2.93,-1.1,-1,0,14
273.93,-20.69,963.87,2.81,-0.85,1.46,0,0,14
273.38,-17.03,965.33,-2.32,0.37,-8.42,0,0,14
274.11,-18.49,969.36,-2.81,-0.73,-0.37,0,0,14
274.11,-18.49,969.36,-0.85,-4.88,-5.74,0,0,14
269.53,-16.85,968.63,0.12,-5.62,5.25,0,0,14
269.53,-16.85,968.63,5.25,3.3,0.98,0,0,14
270.26,-8.79,963.32,-0.98,-7.69,2.93,0,-1,14
270.26,-8.79,963.32,-0.98,-6.59,-4.03,0,0,14
270.26,-8.79,963.32,-0.98,-6.96,-9.89,0,0,14
270.26,-8.79,963.32,-1.95,-1.22,-1.46,0,0,14
270.26,-8.79,963.32,2.44,-1.46,2.81,0,0,14
270.26,-8.79,963.32,2.69,-8.91,8.67,0,0,14
287.29,-9.7,964.05,0,5.37,7.57,0,0,14
287.29,-9.7,964.05,-2.93,-8.3,2.69,0,0,14
286.56,-11.54,966.06,2.56,-3.66,-3.78,0,0,14
286.56,-11.54,966.06,-1.46,-4.52,-4.76,0,0,14
291.14,-19.23,964.05,-4.03,-2.81,0.73,0,0,14
291.14,-19.23,964.05,1.1,2.44,8.67,0,0,14
294.25,-22.52,960.39,2.81,-2.32,1.46,0,0,14
294.25,-22.52,960.39,-4.64,-8.67,-0.61,0,0,14
294.07,-23.25,959.29,3.91,-6.59,-1.95,0,0,14
294.07,-23.25,959.29,3.54,-2.32,-1.59,0,1,14
304.69,-19.96,960.02,4.88,-5.86,-1.46,0,0,14
304.69,-19.96,960.02,0.61,-3.54,-5.98,0,0,14
308.9,-17.4,962.04,1.59,-1.34,-3.05,0,0,14
308.9,-17.4,962.04,5.37,4.03,1.34,0,0,14
311.28,-14.83,958.74,5.74,-1.95,-3.17,0,0,14
311.28,-14.83,958.74,0.12,-7.57,-9.89,0,0,14
313.66,-12.82,955.99,-0.73,2.08,-12.82,0,0,14
313.66,-12.82,955.99,-0.73,-7.45,6.23,0,0,14
306.52,-10.07,955.44,2.32,2.32,0.37,0,0,14
306.52,-10.07,955.44,-1.34,-1.1,-3.78,0,0,14
303.04,-12.45,958.56,4.39,1.83,5.62,0,0,14
303.04,-12.45,958.56,5.25,-1.46,5.98,0,0,14
297.36,-7.14,961.49,-0.49,0.37,-3.54,0,0,14
297.36,-7.14,961.49,2.32,-0.85,0.85,0,0,14
298.1,-8.24,962.59,1.59,0,-12.94,0,0,14
298.1,-8.24,962.59,-4.39,-3.54,-1.1,0,0,14
297.73,-8.79,961.67,-2.81,-1.34,4.27,0,0,14
297.73,-8.79,961.67,1.1,-2.08,-0.73,0,0,14
298.83,-10.25,959.29,0.12,1.34,-0.12,0,0,14
298.83,-10.25,959.29,-3.66,2.93,-3.05,0,0,14
306.88,-9.7,959.47,3.54,0,-2.44,0,0,14
316.22,-5.31,960.02,1.22,-5,-12.33,0,0,14
316.22,-5.31,960.02,0.24,-1.71,-2.32,0,0,14
322.63,-2.56,957.28,5.86,-3.54,1.22,0,0,14
322.63,-2.56,957.28,2.81,-4.39,-9.52,0,0,14
325.56,2.01,953.25,4.03,0.49,8.91,0,0,14
325.56,2.01,953.25,2.32,-1.46,-1.22,0,0,14
325.56,2.01,953.25,-0.98,1.46,-0.37,0,0,14
325.56,2.01,953.25,1.46,0.37,5.74,0,0,14
325.56,2.01,953.25,3.3,4.88,8.3,0,0,14
325.56,2.01,953.25,-4.88,2.2,5.37,0,0,14
310,10.62,958.37,-2.2,-2.44,-1.1,0,0,14
310,10.62,958.37,3.17,0.24,-0.98,0,0,14
303.22,4.76,959.66,-5.86,-1.83,-1.46,0,-1,14
303.22,4.76,959.66,0,0.12,5.49,0,0,14
296.81,-4.76,960.75,0.49,-2.08,-0.73,0,0,14
296.81,-4.76,960.75,2.2,-5.37,6.23,0,0,14
293.33,-6.41,962.59,6.1,-0.24,-1.1,0,0,14
293.33,-6.41,962.59,4.03,4.64,20.63,0,1,14
288.57,-7.14,962.4,-2.32,1.83,2.2,0,0,14
288.57,-7.14,962.4,-1.46,-2.32,-4.15,0,-1,14
290.95,-10.25,960.02,-9.89,5.13,0.85,0,0,14
290.95,-10.25,960.02,2.81,-0.73,2.93,0,0,14
299.19,-9.34,959.84,1.59,0.49,3.42,0,0,14
299.19,-9.34,959.84,-5.62,2.44,-4.27,0,0,14
302.12,-9.52,958.01,-3.3,8.54,6.47,0,2,14
302.12,-9.52,958.01,2.69,-3.54,-6.71,0,0,14
299.56,-10.44,956.73,-0.37,-6.96,6.84,0,-1,14
299.56,-10.44,956.73,2.32,3.91,5.13,0,0,14
301.21,-13.37,961.67,-0.98,8.54,5.37,0,0,14
301.21,-13.37,961.67,1.22,-0.61,-3.91,0,0,14
303.04,-11.72,965.15,4.52,-1.46,-2.69,0,-1,14
303.04,-11.72,965.15,-1.59,-1.71,0.24,0,1,14
294.8,-11.72,965.7,-3.66,-5.25,-10.62,0,0,14
294.8,-11.72,965.7,3.78,0.61,-5.37,0,0,14
289.31,-16.48,962.4,1.34,-0.61,2.2,0,0,14
289.31,-16.48,962.4,-6.84,-0.49,-1.83,0,1,14
286.38,-16.66,956.91,-2.69,-3.78,0.24,0,0,14
286.38,-16.66,956.91,-5.98,-2.93,-7.08,0,1,14
286.93,-11.72,957.82,-1.1,5.37,1.83,0,0,14
286.93,-11.72,957.82,-5,2.2,6.47,0,0,14
289.12,-5.31,957.28,4.39,-1.59,6.84,0,0,14
293.88,0.73,960.57,0.37,-1.71,-4.15,0,-1,14
293.88,0.73,960.57,3.17,4.27,-0.61,0,-1,14
299.56,6.04,961.49,2.69,1.71,10.25,0,0,14
299.56,6.04,961.49,0.73,2.93,1.59,0,-1,14
310.91,1.83,962.04,0.85,-1.46,-0.37,0,-1,14
310.91,1.83,962.04,-4.27,-7.57,-7.2,0,-1,14
310.91,1.83,962.04,3.91,-3.91,1.1,0,0,14
310.91,1.83,962.04,5.25,-4.39,7.32,0,0,14
310.91,1.83,962.04,2.32,-0.98,4.76,0,1,14
310.91,1.83,962.04,-1.59,-6.59,2.81,0,0,14
313.11,-13.37,956.73,1.83,-3.54,-1.22,0,1,14
313.11,-13.37,956.73,-2.56,-2.93,4.76,0,0,14
313.66,-22.71,953.43,2.69,-1.34,4.03,0,0,14
313.66,-22.71,953.43,3.91,0.61,-1.71,0,0,14
310.73,-22.34,954.53,-0.24,11.11,10.25,0,1,14
310.73,-22.34,954.53,-0.98,-4.52,3.66,0,0,14
310.18,-24.9,956.91,-4.76,6.35,6.35,0,0,14
310.18,-24.9,956.91,5.25,2.69,4.76,0,1,14
309.63,-24.35,961.67,0.12,1.1,-1.83,0,0,14
309.63,-24.35,961.67,-2.56,-3.3,-2.2,0,0,14
310.36,-14.1,960.94,-3.05,-1.34,3.54,0,0,14
310.36,-14.1,960.94,3.66,-1.83,-3.17,0,0,14
303.59,-7.69,958.74,-0.49,3.66,4.03,0,0,14
303.59,-7.69,958.74,-1.83,-1.34,-4.39,0,0,14
305.24,1.83,960.94,2.44,2.2,-0.37,0,0,15
305.24,1.83,960.94,3.54,1.34,1.34,0,0,14
305.97,5.31,958.37,2.56,2.93,0.49,0,-1,14
305.97,5.31,958.37,-9.64,-0.12,-0.73,0,-2,14
306.15,2.56,957.46,0.49,0.37,3.66,0,-1,14
306.15,2.56,957.46,4.39,-0.49,2.93,0,0,14
311.28,-5.13,955.81,-0.73,3.17,0.85,0,0,14
311.28,-5.13,955.81,0.98,8.91,1.34,0,0,14
316.96,-11.17,957.46,4.52,2.81,9.64,0,0,14
316.96,-11.17,957.46,2.32,3.91,4.15,0,0,14
319.89,-22.16,958.92,0,6.35,0,0,0,15
319.89,-22.16,958.92,-3.17,1.59,-4.27,0,0,14
317.5,-28.02,959.11,-2.2,4.15,-6.1,0,1,14
317.5,-28.02,959.11,6.1,6.1,-4.52,0,0,14
313.84,-25.27,955.08,-2.81,-0.61,4.52,0,0,14
313.84,-25.27,955.08,1.22,6.84,3.54,0,0,14
310,-23.25,958.19,-1.1,0.98,-4.64,0,0,14
305.97,-16.66,962.59,-5.13,5.62,-2.32,0,0,14
305.97,-16.66,962.59,1.46,-0.73,2.08,0,0,14
295.17,-4.58,963.13,-1.95,7.45,-2.08,0,0,14
295.17,-4.58,963.13,0,6.96,0.85,0,0,14
288.57,3.11,962.77,3.3,1.1,6.96,0,0,14
288.57,3.11,962.77,3.42,1.95,-5,0,0,14
286.74,6.96,964.05,-1.46,3.66,-3.05,0,0,15
286.74,6.96,964.05,0.12,5.13,-10.5,0,0,14
286.74,6.96,964.05,2.81,-4.76,0.37,0,0,14
286.74,6.96,964.05,-9.52,-0.61,2.69,0,0,14
288.94,5.86,961.49,-2.69,-1.34,-0.73,0,1,14
288.94,5.86,961.49,1.95,0.49,1.1,0,0,14
287.84,1.83,962.77,-1.95,2.69,-11.84,0,1,14
287.84,1.83,962.77,-4.64,-1.1,-7.32,0,0,14
287.84,0,961.67,0,-0.98,-5.74,0,0,14
287.84,0,961.67,-4.76,4.52,9.03,0,0,14
282.35,-5.31,964.23,-0.37,1.71,-4.52,0,0,14
282.35,-5.31,964.23,1.83,1.46,-5.74,0,0,14
281.62,-11.35,964.42,-0.85,1.95,3.78,0,0,14
281.62,-11.35,964.42,1.34,1.22,-4.88,0,0,14
275.21,-17.94,963.32,2.56,-3.05,-1.46,0,0,14
275.21,-17.94,963.32,4.03,3.05,-6.84,0,0,14
272.28,-24.54,966.98,6.47,5.86,-3.17,0,0,14
272.28,-24.54,966.98,0.73,0.37,-2.81,0,0,14
277.22,-25.27,965.7,-2.81,2.44,1.22,0,0,14
277.22,-25.27,965.7,-1.1,-2.32,-5.37,0,0,14
279.97,-27.47,962.59,-3.91,0.98,5.37,0,0,14
279.97,-27.47,962.59,9.64,4.64,8.18,0,0,14
287.48,-25.45,961.12,-3.3,8.67,0,0,0,14
287.48,-25.45,961.12,-8.06,0,-11.72,0,0,14
290.77,-25.27,962.59,2.81,8.3,-2.44,0,0,14
290.77,-25.27,962.59,0.49,2.81,9.4,0,0,14
296.81,-21.61,962.22,-1.95,0.61,2.69,0,0,14
296.81,-21.61,962.22,5.86,-0.98,-3.91,0,0,14
302.49,-18.68,960.21,9.64,6.84,-0.49,0,0,14
302.49,-18.68,960.21,1.1,-0.24,-0.61,0,0,14
304.14,-13.55,961.49,-2.69,-3.17,-4.39,0,0,14
304.14,-13.55,961.49,-0.49,0.24,-6.71,0,0,14
305.05,-7.32,959.66,2.81,-3.17,-1.1,0,0,14
305.05,-7.32,959.66,-4.15,2.56,0.61,0,0,15
299.19,-3.85,960.57,5.62,4.64,-5.37,0,0,14
299.19,-3.85,960.57,3.54,6.35,-6.84,0,0,14
299.19,-3.85,960.57,-4.03,3.91,-8.42,0,0,14
289.31,-0.73,963.5,2.2,-0.12,0.49,0,0,14
289.31,-0.73,963.5,-4.15,-0.24,-6.96,0,0,14
284.73,-8.79,966.06,0,6.23,-0.24,0,0,14
284.73,-8.79,966.06,0.98,0,-8.18,0,0,14
287.29,-15.01,968.99,-3.05,-1.95,-4.64,0,0,14
287.29,-15.01,968.99,-0.98,1.34,0.85,0,0,14
287.29,-15.01,968.99,3.66,-3.78,0.73,0,0,14
287.29,-15.01,968.99,3.17,-1.95,-4.52,0,0,14
297.73,-19.41,959.29,2.08,-2.93,-1.59,0,0,14
297.73,-19.41,959.29,0.85,-2.93,-0.49,0,0,14
312.01,-11.72,958.19,-0.98,-4.76,-4.76,0,0,14
312.01,-11.72,958.19,8.3,-1.71,0.12,0,0,14
315.86,-8.61,960.39,-3.78,3.91,-4.52,0,0,14
315.86,-8.61,960.39,3.66,-2.93,-14.04,0,0,14
322.63,-1.46,958.56,-5.25,-4.76,1.1,0,0,14
322.63,-1.46,958.56,1.83,-3.54,3.17,0,0,14
320.07,5.49,958.56,-0.61,-0.61,-3.78,0,0,14
320.07,5.49,958.56,-1.46,0.61,-4.76,0,0,14
314.58,4.58,957.28,-4.15,-10.86,-2.81,0,0,14
314.58,4.58,957.28,2.2,2.2,0,0,0,14
307.07,7.51,958.37,0.12,-4.76,-0.73,0,0,14
307.07,7.51,958.37,7.32,2.08,-5.62,0,0,14
300.48,3.3,959.47,4.76,2.93,2.2,0,0,14
300.48,3.3,959.47,-0.24,5.13,0.24,0,0,14
297.91,-2.38,960.94,-2.93,2.2,-0.37,0,0,14
297.91,-2.38,960.94,6.84,5,3.42,0,0,14
300.48,-5.13,962.77,-1.22,4.39,-7.32,0,0,14
300.48,-5.13,962.77,5.74,-1.22,-5.25,0,0,14
297,-10.99,962.4,-5.86,-0.49,-9.28,0,0,14
297,-10.99,962.4,2.44,0.98,-2.2,0,0,14
297,-10.99,962.4,-1.95,-1.71,-2.32,0,0,14
297,-10.99,962.4,2.81,5.62,-2.56,0,0,14
297,-17.4,962.77,1.34,0,0.24,0,0,14
297,-17.4,962.77,-2.69,-4.27,0.24,0,0,14
294.98,-15.01,963.13,-4.52,3.78,-6.1,0,0,14
294.98,-15.01,963.13,-7.69,7.32,1.59,0,0,15
295.9,-14.1,963.13,-1.1,-1.71,1.71,0,0,14
295.9,-14.1,963.13,2.93,-1.59,0.85,0,0,14
294.8,-16.3,961.12,0.98,-1.83,-4.15,0,0,14
294.8,-16.3,961.12,-0.85,1.59,6.96,0,0,14
291.69,-8.61,959.84,-1.1,2.2,-3.66,0,0,14
294.62,-8.24,959.84,-0.73,0.37,4.15,0,0,14
294.62,-8.24,959.84,3.78,-3.91,-3.42,0,0,14
295.9,-9.16,962.04,3.91,1.71,0,0,0,14
295.9,-9.16,962.04,-3.17,3.05,-4.52,0,0,14
296.81,-4.39,962.77,-6.59,-4.76,-1.83,0,0,14
296.81,-4.39,962.77,5.62,1.1,3.91,0,0,14
296.81,-4.39,962.77,-1.1,3.66,1.59,0,0,14
296.81,-4.39,962.77,-1.95,0.24,-1.22,0,0,14
296.81,-4.39,962.77,-3.91,-0.24,3.05,0,0,14
296.81,-4.39,962.77,4.76,8.3,0,0,0,14
284.36,-12.82,961.12,0.49,-0.98,2.32,0,0,14
284.36,-12.82,961.12,-3.42,4.76,-4.64,0,0,14
279.97,-14.65,961.67,2.08,-1.71,2.2,0,0,14
279.97,-14.65,961.67,1.83,5.13,5.86,0,0,14
277.4,-13.37,962.22,2.56,-2.93,4.76,0,0,14
277.4,-13.37,962.22,5.62,-2.2,4.64,0,1,14
273.93,-10.99,961.67,1.83,3.3,3.3,0,0,14
273.93,-10.99,961.67,-3.91,-5,-2.69,0,0,14
275.21,-11.72,963.13,1.71,-1.83,5.62,0,0,14
275.21,-11.72,963.13,0,3.05,-15.5,0,0,14
278.5,-5.13,965.52,-4.03,4.76,1.71,0,-1,14
278.5,-5.13,965.52,6.59,3.42,2.81,0,0,14
273.19,-8.24,964.6,-0.98,1.71,1.59,0,0,14
273.19,-8.24,964.6,0.85,-0.85,-1.46,0,0,14
279.97,-7.69,966.06,-3.17,-0.85,-6.35,0,0,14
279.97,-7.69,966.06,1.59,-3.3,-5.74,0,0,14
282.35,-12.08,966.43,2.2,0,-1.59,0,0,14
282.35,-12.08,966.43,-1.95,1.34,-2.08,0,0,14
278.69,-15.56,964.6,-1.59,-2.93,-1.59,0,0,14
278.69,-15.56,964.6,3.3,0.98,-6.96,0,0,14
281.43,-15.2,962.22,-3.17,0.73,-13.55,0,0,14
281.43,-15.2,962.22,-6.1,2.08,1.59,0,0,14
279.97,-15.01,961.85,5,1.83,-2.93,0,0,14
279.97,-15.01,961.85,2.44,-0.61,4.27,0,1,14
284.91,-13,961.12,-0.12,2.81,-2.32,0,0,14
284.91,-13,961.12,4.39,-8.3,2.08,0,0,14
284.55,-14.83,963.5,-0.24,1.1,-8.54,0,0,14
284.55,-14.83,963.5,5,6.47,4.88,0,0,14
288.02,-12.27,964.97,-0.12,4.03,4.27,0,0,14
288.02,-12.27,964.97,-8.18,-5.49,-2.81,0,-1,14
285.64,-9.34,962.22,7.57,-2.69,1.83,0,0,14
289.31,-3.11,962.04,5.13,3.54,0.85,0,0,14
289.31,-3.11,962.04,-2.32,3.78,4.03,0,0,14
285.1,-5.86,963.87,-0.37,3.42,-6.35,0,0,14
285.1,-5.86,963.87,-1.59,4.27,0.98,0,0,14
286.01,-15.01,964.05,7.57,6.84,-0.37,0,0,14
286.01,-15.01,964.05,8.54,-1.83,2.32,0,0,14
286.01,-15.01,964.05,-2.56,-3.42,9.52,0,0,14
286.01,-15.01,964.05,1.71,1.83,4.88,0,0,14
286.01,-15.01,964.05,-2.93,-9.77,3.42,0,0,14
286.01,-15.01,964.05,-0.37,3.17,6.71,0,0,14
276.12,-23.62,964.23,-1.1,3.54,0.12,0,0,14
276.12,-23.62,964.23,-2.2,5.13,10.5,0,0,14
274.66,-22.89,963.5,0.24,-0.73,7.08,0,0,14
274.66,-22.89,963.5,1.22,1.46,-7.32,0,0,14
280.52,-14.47,965.88,3.05,-1.71,1.34,0,0,14
280.52,-14.47,965.88,-5.98,2.32,-9.4,0,0,14
281.8,-11.9,966.25,4.76,0.61,-0.49,0,0,14
281.8,-11.9,966.25,-5.74,1.1,-5.86,0,0,14
282.9,-7.87,966.61,-1.22,-1.1,-2.32,0,0,14
282.9,-7.87,966.61,-5.49,2.56,-8.91,0,0,14
282.17,-4.94,963.32,3.17,-0.37,-5,0,0,14
282.17,-4.94,963.32,0.85,4.52,4.64,0,0,14
284.55,-4.39,961.67,7.2,1.22,-2.44,0,0,14
284.55,-4.39,961.67,3.91,3.54,-8.18,0,0,14
294.62,0,962.59,2.81,-1.59,10.25,0,0,14
294.62,0,962.59,-1.34,-1.95,-4.03,0,0,14
297.18,-4.21,963.68,1.95,6.35,0.24,0,0,14
297.18,-4.21,963.68,4.76,-1.59,-3.54,0,0,14
299.38,-5.49,963.5,2.44,-0.37,-0.12,0,0,14
299.38,-5.49,963.5,2.93,6.84,-6.47,0,0,14
300.48,-10.25,962.4,0.24,-3.54,-12.08,0,0,14
300.48,-10.25,962.4,3.42,1.34,-0.24,0,0,14
304.5,-13.18,962.22,6.35,-0.37,-3.91,0,0,14
304.5,-13.18,962.22,-1.95,8.54,6.59,0,0,14
305.42,-11.35,960.94,-0.73,0.98,-4.64,0,0,14
305.42,-11.35,960.94,3.05,0.98,0.12,0,0,14
301.94,-7.14,961.85,5.37,7.08,-3.66,0,0,14
301.94,-7.14,961.85,0,3.05,-1.1,0,0,14
299.01,-7.14,964.78,0.73,-1.22,6.47,0,0,14
299.01,-7.14,964.78,-3.66,0.49,-1.71,0,0,14
299.74,-1.65,964.42,-2.81,-5.25,-0.61,0,0,14
298.28,-1.46,964.05,2.69,-1.34,1.59,0,0,14
298.28,-1.46,964.05,2.93,10.25,8.06,0,0,14
296.08,0.55,960.94,-3.42,-6.84,-16.36,0,0,14
296.08,0.55,960.94,-4.27,1.59,-1.83,0,0,14
302.67,-0.37,958.74,2.81,-0.61,2.56,0,0,14
302.67,-0.37,958.74,-4.64,-0.12,-11.72,0,0,14
305.97,2.38,961.12,-0.49,-8.3,1.71,0,0,14
305.97,2.38,961.12,1.1,0.24,-2.32,0,0,14
305.97,2.38,961.12,-5.62,-1.83,-3.42,0,0,14
305.97,2.38,961.12,0.24,-8.67,2.81,0,0,14
309.08,0,961.85,0.24,1.83,2.44,0,0,14
309.08,0,961.85,3.91,3.78,1.95,0,0,14
302.31,-0.55,962.22,0.24,-1.83,-9.77,0,0,14
302.31,-0.55,962.22,-0.98,3.05,-6.96,0,0,14
298.28,-0.73,962.04,0.61,3.42,0.37,0,0,14
298.28,-0.73,962.04,-2.44,3.17,-1.83,0,0,14
289.86,-4.94,963.5,-0.49,3.91,-2.81,0,0,14
289.86,-4.94,963.5,6.23,3.05,-4.03,0,0,14
281.25,-3.85,966.8,-4.39,-0.73,-12.33,0,0,14
281.25,-3.85,966.8,-6.84,0.49,-10.13,0,0,14
276.67,-10.25,967.9,-1.95,-1.95,0.24,0,0,14
276.67,-10.25,967.9,0.98,0,4.76,0,0,14
272.46,-13.92,966.98,-0.37,6.47,-7.2,0,0,14
272.46,-13.92,966.98,6.96,-0.37,2.81,0,0,14
269.35,-12.63,967.53,-4.03,1.83,-5.37,0,0,14
269.35,-12.63,967.53,-2.44,-0.49,-1.95,0,0,14
273.38,-13,966.61,1.83,2.69,-7.45,0,0,14
273.38,-13,966.61,5.74,7.81,7.45,0,0,14
276.12,-12.08,968.26,0.98,4.15,5.62,0,0,14
276.12,-12.08,968.26,2.56,0.49,-1.59,0,0,15
286.93,-14.83,963.68,5,2.69,0.73,0,0,14
286.93,-14.83,963.68,-4.76,-5,-4.76,0,0,14
289.67,-14.28,963.5,-2.44,0.85,4.52,0,0,14
289.67,-14.28,963.5,2.93,0.85,-5.98,0,0,14
291.69,-19.59,962.4,-4.39,0.98,-2.2,0,0,14
291.69,-19.59,962.4,3.3,2.69,6.47,0,0,14
294.8,-23.44,960.21,-1.22,0.24,-4.27,0,0,14
294.8,-23.44,960.21,2.2,1.59,5.86,0,0,14
295.9,-29.85,962.4,-2.32,3.66,3.54,0,0,14
295.9,-29.85,962.4,2.2,-0.73,5.74,0,0,14
295.72,-34.79,964.42,0,2.69,4.27,0,0,14
296.08,-36.62,964.97,2.32,6.59,-2.56,0,0,14
296.08,-36.62,964.97,4.64,-2.32,-0.85,0,0,14
295.9,-33.33,964.97,5.25,3.17,0.37,0,0,14
295.9,-33.33,964.97,8.54,8.42,10.86,0,0,14
295.53,-23.62,962.59,4.03,4.88,0,0,0,14
295.53,-23.62,962.59,4.27,-2.44,2.32,0,0,14
293.52,-8.79,962.22,-3.42,0.61,1.83,0,0,15
293.52,-8.79,962.22,0.85,6.59,6.35,0,0,14
293.52,-8.79,962.22,-1.71,-4.27,1.34,0,0,14
293.52,-8.79,962.22,-0.98,-0.37,-8.42,0,0,14
281.8,15.38,962.95,-0.24,-0.24,6.59,0,0,14
281.8,15.38,962.95,-6.35,0.49,0.49,0,0,14
275.21,17.4,962.95,4.39,0.73,-6.84,0,0,14
275.21,17.4,962.95,-4.03,10.99,3.91,0,0,14
272.83,14.28,966.25,0,1.34,-3.42,0,0,14
272.83,14.28,966.25,5.86,0.24,0.61,0,1,14
270.81,4.94,966.61,4.64,-5.25,5.25,0,0,14
270.81,4.94,966.61,1.83,-0.49,-3.66,0,0,14
277.95,-9.16,965.15,0.61,1.59,-2.93,0,1,14
277.95,-9.16,965.15,1.95,2.56,-1.22,0,0,14
280.33,-14.83,964.6,4.88,-2.08,11.72,0,0,14
280.33,-14.83,964.6,-3.78,6.96,-5.98,0,0,14
287.48,-29.3,960.57,-2.08,8.42,-0.85,0,-1,14
287.48,-29.3,960.57,-2.08,2.93,-12.57,0,0,14
292.42,-30.58,959.66,2.81,3.66,5,0,0,14
292.42,-30.58,959.66,0,1.71,-9.28,0,0,14
298.1,-26.55,964.42,2.56,1.46,-5.62,0,0,14
298.1,-26.55,964.42,-5.86,-8.42,2.32,1,0,14
295.9,-24.17,966.06,2.81,5.86,-5.25,0,0,14
295.9,-24.17,966.06,2.44,2.2,12.94,0,0,14
294.07,-18.68,966.25,-3.54,-2.81,-5.49,0,0,14
294.07,-18.68,966.25,4.76,-1.34,-7.08,0,0,14
293.15,-8.42,965.7,4.52,0,1.71,0,0,14
293.15,-8.42,965.7,-2.69,5,7.93,0,0,14
291.87,-2.56,964.05,-2.81,5.25,7.81,0,0,14
291.87,-2.56,964.05,5.49,2.44,-3.66,0,0,14
297.91,0.55,962.77,6.96,-1.83,1.46,0,0,14
297.91,0.55,962.77,-0.85,-4.76,-2.32,0,0,14
302.12,-2.2,963.87,4.27,5.37,7.69,0,0,14
302.12,-2.2,963.87,5.13,8.91,5.49,0,0,14
304.5,-3.66,963.87,-3.42,-1.59,-4.27,0,0,14
304.5,-3.66,963.87,7.45,0.85,6.35,0,-1,14
304.5,-3.66,963.87,0.37,0.85,2.69,0,0,14
312.01,-9.34,962.22,6.1,-2.08,-4.27,1,-2,14
312.01,-9.34,962.22,-0.12,-2.2,-1.59,0,0,14
316.96,-7.51,964.23,-2.44,5.86,-5.37,0,0,14
316.96,-7.51,964.23,1.83,3.78,3.17,0,1,14
316.77,-9.16,964.6,-2.56,-3.17,10.25,0,0,14
316.77,-9.16,964.6,-0.24,-3.05,-1.22,0,0,14
316.77,-9.16,964.6,-0.37,5.86,0,-1,1,14
316.77,-9.16,964.6,-1.95,5.25,2.93,0,0,14
322.45,-14.47,962.59,-4.15,1.22,-4.76,0,0,14
322.45,-14.47,962.59,-3.66,5.86,1.95,0,0,14
317.69,-18.31,962.4,3.91,1.95,0.73,0,0,14
317.69,-18.31,962.4,5.37,4.27,6.59,1,0,14
315.67,-18.68,961.49,2.08,4.03,0.24,2,0,14
315.67,-18.68,961.49,4.64,4.52,4.03,0,0,14
316.96,-17.94,959.84,-4.76,2.69,0.49,1,0,14
316.96,-17.94,959.84,3.42,6.96,8.06,0,0,14
324.46,-16.11,960.75,4.76,6.47,-6.59,0,2,14
324.46,-16.11,960.75,-1.34,10.25,8.06,0,0,14
327.58,-14.1,961.85,0.12,-2.2,2.56,0,0,14
327.58,-14.1,961.85,1.1,5,3.17,0,0,14
329.96,-10.25,958.56,-1.22,5.86,6.96,0,0,14
329.96,-10.25,958.56,-1.59,4.76,0.49,1,-1,14
328.86,-6.59,957.64,2.08,3.54,-3.05,0,0,14
328.86,-6.59,957.64,-2.93,11.11,2.81,1,0,14
332.15,-5.31,960.75,1.83,11.6,5.37,0,0,14
332.15,-5.31,960.75,1.95,6.47,-3.42,1,-1,14
328.31,-1.28,963.87,-2.56,3.66,-2.69,0,0,14
328.31,-1.28,963.87,-1.1,3.42,6.71,0,0,14
317.32,1.1,961.12,0.98,10.01,0.37,0,0,14
317.32,1.1,961.12,-2.44,11.96,0.85,0,1,14
317.32,1.1,961.12,-0.61,6.35,-2.2,0,0,14
317.32,1.1,961.12,0.12,6.84,-4.88,0,0,14
305.24,-10.8,959.84,0.49,9.64,-4.03,0,0,14
305.24,-10.8,959.84,-2.69,1.71,-5.98,0,0,14
302.49,-14.83,962.59,0.12,5.86,2.56,1,0,14
302.49,-14.83,962.59,5,17.46,5,0,0,14
305.6,-18.13,963.87,-7.57,8.06,6.96,0,0,14
305.6,-18.13,963.87,0.98,8.54,-2.69,0,0,14
316.96,-14.28,965.15,3.42,4.88,1.83,0,0,14
316.96,-14.28,965.15,-3.54,12.82,-3.3,0,0,14
319.34,-9.34,962.77,-0.85,8.54,0.24,0,0,14
316.77,-4.21,957.46,-2.08,5.62,5.62,0,0,14
316.77,-4.21,957.46,-4.27,9.89,-5.74,0,0,14
311.83,-6.59,955.08,5.62,3.17,6.59,0,0,14
311.83,-6.59,955.08,2.93,5.62,-0.73,0,0,14
307.98,-6.59,959.66,-3.78,-0.24,-5.49,0,0,14
307.98,-6.59,959.66,0.98,17.82,5.98,0,0,14
307.98,-6.59,959.66,-1.95,14.89,3.66,0,0,14
307.98,-6.59,959.66,-1.1,5.49,1.83,1,0,14
307.98,-6.59,959.66,-2.56,12.21,3.91,1,0,14
307.98,-6.59,959.66,-0.98,10.74,-6.84,0,0,14
304.69,-14.47,968.08,3.3,20.63,5.37,0,0,14
304.69,-14.47,968.08,-3.3,8.18,4.88,0,1,14
301.57,-10.8,965.15,-2.69,11.35,-6.1,0,1,14
301.57,-10.8,965.15,0.73,11.11,5.74,0,1,14
302.12,-4.76,963.87,-0.49,8.18,-0.98,0,0,13
302.12,-4.76,963.87,0,7.81,-0.37,0,0,14
297,-3.3,964.97,-0.37,8.54,1.46,0,0,14
297,-3.3,964.97,1.59,15.01,0.12,2,0,14
292.05,-2.56,961.49,1.71,12.33,1.46,3,0,14
292.05,-2.56,961.49,2.56,10.25,10.38,0,0,13
289.49,-6.41,964.42,-0.49,13.67,-2.81,2,0,14
289.49,-6.41,964.42,1.95,10.25,-6.23,2,1,14
281.07,-10.99,966.98,-3.78,10.62,-16.36,1,0,13
281.07,-10.99,966.98,0.12,11.6,3.05,0,0,14
278.87,-24.54,966.8,-2.44,15.01,-3.54,1,1,14
278.87,-24.54,966.8,1.22,9.03,10.74,1,0,14
276.31,-30.03,965.88,-0.98,11.47,-0.61,1,-1,14
276.31,-30.03,965.88,-1.22,16.97,-7.69,0,0,13
277.59,-31.31,967.71,3.3,10.38,-4.52,0,0,13
277.59,-31.31,967.71,7.57,11.11,-5.98,0,0,14
279.97,-26.55,971.19,5.13,14.16,-2.69,0,0,13
279.97,-26.55,971.19,-1.46,10.01,-1.59,0,0,13
281.07,-19.41,968.08,3.91,13.55,-0.98,0,0,14
281.07,-19.41,968.08,-8.54,11.35,-5.37,0,0,13
277.04,-4.58,968.63,0.24,13.43,-10.86,0,0,13
277.04,-4.58,968.63,-4.03,11.47,1.71,0,0,13
273.01,4.03,965.7,-5.25,11.23,-4.27,0,0,13
273.01,4.03,965.7,-1.71,10.86,4.64,0,0,14
271,11.72,966.61,0.37,14.65,0.73,0,1,13
271,11.72,966.61,-3.05,21.61,-0.49,1,1,13
265.32,13.73,969.36,-1.95,16.72,-4.76,0,0,13
267.52,14.28,972.47,1.71,21.24,1.71,0,0,13
267.52,14.28,972.47,-3.54,19.9,0.24,0,0,13
266.6,3.66,972.66,0.12,11.72,-1.83,1,0,13
266.6,3.66,972.66,3.42,17.09,0.24,1,-2,13
263.31,-10.99,972.66,-4.88,23.44,1.71,2,-1,13
263.31,-10.99,972.66,2.32,20.14,2.08,0,0,13
263.31,-10.99,972.66,6.23,17.33,1.1,3,-3,13
263.31,-10.99,972.66,2.69,21,1.1,2,-1,13
263.31,-10.99,972.66,-4.76,16.24,4.76,1,0,13
263.31,-10.99,972.66,-3.05,19.29,8.54,2,0,13
260.19,-24.9,972.66,-7.81,17.09,0.73,0,0,13
260.19,-24.9,972.66,-4.76,19.04,-4.27,1,1,13
256.71,-17.76,975.77,3.54,8.79,-1.34,1,-1,13
256.71,-17.76,975.77,-2.44,20.87,-7.81,1,0,13
252.14,-4.76,977.23,0.12,17.09,-2.69,0,0,13
252.14,-4.76,977.23,1.1,21.61,-0.85,0,0,13
238.95,7.87,973.75,-2.44,17.82,-2.69,0,0,13
238.95,7.87,973.75,-0.85,23.19,5.98,0,0,13
233.64,13.37,970.09,-4.88,15.63,1.34,0,0,13
233.64,13.37,970.09,2.93,21.36,-1.1,0,0,13
231.08,19.96,971.74,3.17,21.85,3.66,0,0,13
231.08,19.96,971.74,3.78,22.34,6.96,0,0,13
231.08,17.94,976.32,-3.54,18.07,-5,1,0,13
231.08,17.94,976.32,1.95,26.25,-5.86,0,0,13
238.04,3.66,976.14,-1.1,17.46,-4.15,0,-1,13
238.04,3.66,976.14,-3.42,15.01,-1.46,0,-1,13
238.77,-7.51,974.12,1.71,20.39,-6.71,1,0,12
238.77,-7.51,974.12,0.12,26.25,2.69,0,-1,13
230.71,-17.58,970.46,-2.08,24.54,-1.59,0,0,13
230.71,-17.58,970.46,-1.1,20.14,0.85,0,0,12
221.56,-23.99,974.85,1.1,17.82,-5.25,3,0,13
221.56,-23.99,974.85,4.76,20.14,7.93,3,-1,13
202.7,-24.17,979.25,1.1,24.9,-3.42,0,0,13
202.7,-24.17,979.25,-1.95,25.02,-1.46,3,-1,13
183.11,-15.93,979.8,-2.56,22.95,-9.52,3,0,13
183.11,-15.93,979.8,-4.03,24.78,-2.2,1,0,12
165.34,-10.8,979.98,-6.47,23.68,-4.39,0,0,13
165.34,-10.8,979.98,1.59,35.89,-3.17,0,0,12
155.82,-10.62,978.7,-3.05,21.12,4.39,0,0,13
155.82,-10.62,978.7,-4.03,20.63,1.71,0,0,13
157.65,-9.34,985.66,-1.1,18.8,-10.01,1,0,13
156.56,-14.1,987.67,0.98,21.12,4.03,0,0,13
156.56,-14.1,987.67,-2.32,22.22,2.08,0,-1,13
161.32,-24.9,987.85,0,22.58,-11.23,0,-1,13
161.32,-24.9,987.85,1.22,32.71,7.32,0,0,12
160.03,-35.34,984.01,-0.85,15.26,-6.35,2,-1,12
160.03,-35.34,984.01,-2.93,25.63,-11.35,0,0,12
160.03,-35.34,984.01,-1.95,24.78,-4.15,3,0,13
160.03,-35.34,984.01,-0.37,19.65,-1.95,2,0,12
160.03,-35.34,984.01,-8.79,18.8,-0.37,3,0,12
160.03,-35.34,984.01,-1.71,26.49,-3.05,0,0,12
119.93,-39.92,990.78,2.93,17.94,-3.78,1,0,12
119.93,-39.92,990.78,0.12,27.22,-4.76,1,0,12
106.02,-33.69,994.81,6.84,19.29,-0.24,2,0,13
106.02,-33.69,994.81,-1.95,28.44,-2.08,0,0,12
97.23,-20.14,994.26,-2.44,19.29,-3.3,0,0,12
97.23,-20.14,994.26,3.78,27.71,1.46,0,-1,12
83.5,-13.55,993.53,-1.95,25.15,-2.32,0,0,12
83.5,-13.55,993.53,0.85,22.46,5.74,0,-1,12
64.82,-10.07,995.18,2.93,24.66,8.06,0,0,12
64.82,-10.07,995.18,-1.46,21.97,3.54,0,-1,12
56.95,-1.83,997.38,4.15,20.39,-0.98,0,-1,12
56.95,-1.83,997.38,1.71,17.46,-6.47,0,1,12
57.5,-0.73,1003.05,-2.32,24.05,0.24,0,1,12
57.5,-0.73,1003.05,4.03,22.95,7.2,0,0,12
52,-2.01,1008.18,-3.54,17.46,-6.84,0,0,12
52,-2.01,1008.18,-4.88,15.38,1.46,0,2,12
45.04,-2.01,1005.43,-0.85,24.29,2.32,1,0,13
45.04,-2.01,1005.43,-3.42,17.58,4.03,0,0,13
43.95,-3.85,1006.16,1.34,21.85,-0.24,1,-1,13
43.95,-3.85,1006.16,0.24,18.8,-10.5,0,0,12
44.31,-7.87,1008.91,-3.78,16.36,0,4,-2,13
44.31,-7.87,1008.91,-3.66,20.39,4.27,3,-1,12
37.54,-12.08,1007.08,2.2,17.82,3.54,0,0,13
37.54,-12.08,1007.08,1.1,20.14,2.69,3,0,12
36.07,-15.01,1003.6,0.61,17.94,-9.16,5,0,12
36.07,-15.01,1003.6,-2.69,14.28,0.98,0,-1,13
39.37,-18.49,1004.33,0.98,16.6,0.85,1,-1,12
39.37,-18.49,1004.33,-6.84,19.53,-5.37,0,0,13
44.31,-14.65,1010.74,0.24,21.61,9.52,0,-1,13
44.31,-14.65,1010.74,-0.49,23.93,0.98,0,-1,12
38.27,-15.2,1012.39,1.59,12.82,1.95,0,0,13
36.8,-11.35,1007.63,-0.98,15.38,-2.93,0,0,13
36.8,-11.35,1007.63,5.62,14.04,-0.24,1,0,12
32.96,-6.96,1005.8,5.13,15.5,3.78,0,0,12
32.96,-6.96,1005.8,4.39,20.26,4.27,1,0,12
27.28,-2.75,1005.25,4.27,12.21,3.3,0,0,12
27.28,-2.75,1005.25,-1.59,11.96,-3.3,0,0,12
29.85,5.49,1003.97,-2.69,9.4,3.17,0,0,12
29.85,5.49,1003.97,-0.24,10.38,4.39,1,0,12
29.85,5.49,1003.97,-6.23,7.2,-3.66,0,-1,12
29.85,5.49,1003.97,0.37,11.47,-1.1,0,0,12
37.17,7.14,1009.64,-5.25,11.96,2.93,0,0,13
37.17,7.14,1009.64,-2.44,9.89,-5.62,0,-1,12
37.72,1.46,1006.35,-4.64,11.11,5.37,-1,0,12
37.72,1.46,1006.35,-1.59,17.09,-4.15,0,0,12
35.34,-12.45,1009.46,-0.24,9.64,0.85,0,0,11
35.34,-12.45,1009.46,2.2,12.82,6.1,-3,0,11
28.38,-23.25,1011.47,-2.81,17.7,0.24,-2,-2,11
28.38,-23.25,1011.47,0.85,10.5,-0.24,0,-2,11
23.99,-29.11,1012.76,1.71,16.11,-0.37,0,0,13
23.99,-29.11,1012.76,-5.62,14.04,3.05,-3,-2,11
22.34,-36.44,1012.94,-0.98,10.38,0.49,2,-2,12
22.34,-36.44,1012.94,2.93,12.33,-1.46,1,0,12
17.4,-43.4,1013.49,-4.76,14.28,1.83,0,0,11
17.4,-43.4,1013.49,1.46,13.67,3.66,0,0,12
-3.3,-35.71,1007.26,7.32,16.85,-2.08,1,0,12
-3.3,-35.71,1007.26,5.37,10.38,-3.42,0,1,12
-18.31,-41.2,1005.62,3.78,8.79,3.54,0,0,11
-18.31,-41.2,1005.62,2.81,9.16,5.25,0,0,11
-5.68,-33.33,1010.56,-3.78,13.79,1.71,0,0,12
-5.68,-33.33,1010.56,7.57,21.85,6.71,0,0,12
-12.45,-28.2,1014.22,1.83,10.01,5.49,0,0,12
-12.45,-28.2,1014.22,4.27,12.7,4.64,1,-1,12
-10.44,-24.17,1017.88,-2.93,6.23,4.52,0,0,12
-10.44,-24.17,1017.88,3.17,8.18,5.37,0,-1,12
2.38,-7.32,1014.22,-1.83,9.03,5.49,1,0,11
2.38,-7.32,1014.22,-1.46,11.47,2.32,0,0,12
-1.28,3.66,1011.47,6.23,11.96,-2.2,0,0,11
-1.28,3.66,1011.47,5.49,14.77,11.6,0,2,11
-11.17,13,1008.73,0.85,15.87,5.49,1,2,12
-11.17,13,1008.73,0.12,12.21,-0.85,0,0,11
-3.66,17.58,1011.47,0,8.06,-13.31,0,0,11
-17.94,14.47,1018.25,6.23,7.45,-5.49,0,0,11
-17.94,14.47,1018.25,-3.3,4.88,-2.81,1,0,11
-10.62,8.61,1021.36,0.73,15.14,3.78,1,-1,11
-10.62,8.61,1021.36,-1.95,15.38,-5.49,0,0,11
-16.3,7.32,1020.63,2.81,12.08,2.56,0,0,10
-16.3,7.32,1020.63,0,11.96,-2.93,0,0,12
-18.49,3.3,1013.67,4.88,13.06,5.49,0,0,11
-18.49,3.3,1013.67,0.24,1.95,1.95,-1,-1,11
-18.49,3.3,1013.67,-0.61,12.7,1.59,3,-1,11
-18.49,3.3,1013.67,-4.52,5.74,-12.57,0,0,11
19.41,-12.45,1013.67,2.32,2.81,2.32,4,-1,11
19.41,-12.45,1013.67,1.59,3.78,10.74,4,0,11
34.79,-16.48,1015.32,1.95,8.06,5.37,4,0,11
34.79,-16.48,1015.32,-6.47,4.88,-8.67,0,0,10
24.35,-7.51,1008.36,7.08,16.6,-4.39,0,0,11
24.35,-7.51,1008.36,-0.61,8.91,0.37,1,0,11
21.97,-10.8,1002.69,-0.49,6.71,2.08,0,0,11
21.97,-10.8,1002.69,1.1,8.54,8.67,0,-1,11
15.93,-11.72,997.92,4.15,9.52,-3.3,0,0,11
15.93,-11.72,997.92,-3.66,8.06,-6.84,0,-1,11
-1.65,-8.79,1006.53,1.1,10.62,-11.96,0,-1,11
-1.65,-8.79,1006.53,2.81,17.09,-5.98,0,0,11
-9.89,-15.75,1014.77,-3.17,2.44,-4.64,0,0,11
-9.89,-15.75,1014.77,0.24,6.23,-6.1,0,0,11
5.68,-16.48,1016.05,-0.24,11.35,-1.34,0,0,11
5.68,-16.48,1016.05,2.32,14.16,-11.72,1,0,11
17.4,-24.35,1009.46,0.98,17.09,0.37,0,-1,11
17.4,-24.35,1009.46,0.98,11.96,-1.46,0,0,11
20.14,-29.48,1002.14,3.66,9.16,0.37,1,0,11
20.14,-29.48,1002.14,-1.34,7.45,-10.99,1,0,10
7.51,-22.52,1006.16,-2.44,6.71,-5.25,0,0,11
7.51,-22.52,1006.16,4.64,4.52,-11.11,1,0,10
55.66,-18.49,1006.9,-1.46,6.59,-4.15,0,0,11
55.66,-18.49,1006.9,0.49,15.38,-6.35,1,0,11
40.83,2.93,1006.9,2.81,10.13,-6.84,1,0,11
40.83,2.93,1006.9,2.69,9.4,-9.89,0,0,11
20.51,-14.65,1007.08,-1.1,12.08,-11.11,0,0,10
20.51,-14.65,1007.08,-5.98,6.59,-4.39,0,0,11
20.32,0,1008.54,3.05,7.45,-0.49,0,0,11
20.32,0,1008.54,0,10.99,-13.67,0,0,11
42.48,-28.02,1010.19,1.34,7.08,4.64,-1,0,11
42.48,-28.02,1010.19,2.69,5.98,-0.24,0,0,11
42.48,-28.02,1010.19,-0.24,10.86,0.12,0,0,11
27.65,-20.69,1016.42,5.37,3.3,-7.32,0,0,11
27.65,-20.69,1016.42,-3.91,2.93,-11.35,0,0,11
25.09,-32.78,1009.09,2.81,3.91,-5.98,0,0,10
25.09,-32.78,1009.09,2.32,12.57,-11.84,1,0,10
4.94,-26.37,1012.76,1.22,5.74,5.98,0,-1,11
4.94,-26.37,1012.76,4.27,10.13,-3.3,0,-1,11
4.94,-26.37,1012.76,-0.85,2.32,-0.98,-2,-1,11
4.94,-26.37,1012.76,-2.32,18.68,3.05,0,0,11
5.68,-23.99,1007.26,-2.2,8.06,-2.08,1,-1,10
5.68,-23.99,1007.26,-1.71,1.95,-16.72,3,-1,10
27.28,-20.14,1000.67,2.69,9.52,6.84,1,-1,10
27.28,-20.14,1000.67,6.59,8.42,-0.98,0,0,11
34.61,-14.28,1008.54,-0.73,9.64,-5.13,3,-1,10
34.61,-14.28,1008.54,-3.17,9.89,-6.84,0,-1,10
39,-9.52,1006.9,-3.78,6.35,0.98,0,-1,11
39,-9.52,1006.9,7.57,10.74,-2.69,0,0,10
26.92,-11.35,1006.35,1.83,11.23,-0.61,0,0,10
26.92,-11.35,1006.35,-2.2,6.71,-5.25,0,0,10
32.59,-11.17,1001.95,-1.71,8.42,1.46,1,-1,10
32.59,-11.17,1001.95,-1.59,7.57,-7.2,0,0,11
32.41,-14.1,1008.36,-3.91,12.57,0.49,0,0,10
32.41,-14.1,1008.36,0.37,12.94,4.39,1,0,10
26.92,-25.63,1011.11,7.08,15.14,2.93,0,0,10
26.92,-25.63,1011.11,2.08,10.38,3.91,1,0,10
27.83,-22.34,1011.84,-2.93,11.6,12.08,0,0,9
27.83,-22.34,1011.84,3.3,13.31,-0.98,0,0,10
17.03,-26.18,1003.05,-10.62,1.34,-8.06,1,0,11
17.03,-26.18,1003.05,0.12,3.3,-1.59,0,0,9
-5.86,-17.03,1176.09,-4.88,10.74,-2.08,0,0,11
-5.86,-17.03,1176.09,-6.35,9.77,1.34,0,0,10
-5.86,-17.03,1176.09,3.66,5.37,-8.79,0,0,10
-5.86,-17.03,1176.09,1.46,15.01,5.86,0,0,10
-170.1,37.72,915.34,-4.76,4.39,6.84,0,0,10
-170.1,37.72,915.34,-4.03,7.93,2.32,0,0,10
-236.02,4.21,1023.01,-10.5,-4.15,3.3,0,0,10
-236.02,4.21,1023.01,-9.64,8.3,-7.93,0,0,10
-91,113.16,1010.93,-2.32,-1.83,-6.23,0,0,10
-91,113.16,1010.93,-1.59,0.37,-3.05,0,0,10
-205.99,19.41,1019.53,-1.95,5.37,-5.86,0,0,10
-205.99,19.41,1019.53,-7.08,-1.22,-0.98,0,0,11
-247.01,-25.45,1029.05,-4.27,6.84,1.34,0,0,10
-139.89,22.71,1008.73,-1.95,-1.71,3.66,0,0,11
-139.89,22.71,1008.73,-1.34,3.54,-2.81,0,-1,10
-177.8,-66.47,1041.5,1.1,-0.49,-7.08,0,0,10
-177.8,-66.47,1041.5,-10.38,1.1,-4.15,0,-2,10
-191.71,-78.92,982.36,-3.78,-0.98,-9.52,1,-1,10
-191.71,-78.92,982.36,-5.86,-0.98,-4.76,1,-2,10
-191.71,-78.92,982.36,-3.3,0,-7.69,0,0,10
-191.71,-78.92,982.36,4.64,-0.24,-5.25,0,-2,11
-153.63,-110.41,1029.42,0.24,-3.3,-1.71,0,0,10
-153.63,-110.41,1029.42,-3.66,-4.39,-6.1,0,0,10
-143.74,-71.23,1003.23,3.3,-2.32,-4.27,0,0,11
-143.74,-71.23,1003.23,0.12,1.83,9.28,0,0,10
-117.92,-47.79,994.81,-2.32,-7.81,1.59,0,0,10
-117.92,-47.79,994.81,-3.17,3.91,4.64,0,0,11
-82.21,-8.24,1009.83,-0.73,0.24,3.05,0,0,10
-82.21,-8.24,1009.83,7.08,4.15,-1.95,0,0,10
-76.9,23.25,1017.7,1.1,-0.24,2.2,0,0,10
-76.9,23.25,1017.7,2.08,2.56,-0.73,0,0,10
-49.8,23.07,1015.14,-0.85,3.54,-1.1,0,0,11
-49.8,23.07,1015.14,0.85,3.54,-1.95,1,-1,10
-15.93,16.48,1008.18,0,-0.49,-4.52,0,0,10
-15.93,16.48,1008.18,-6.96,4.39,-9.28,0,0,11
14.65,-1.28,1004.7,-6.35,1.34,-1.71,0,1,10
14.65,-1.28,1004.7,-5.13,-2.44,5.37,1,0,10
30.4,-26.37,1012.02,1.83,0.24,2.93,0,0,10
30.4,-26.37,1012.02,0.73,6.71,0.85,0,0,10
56.03,-38.82,1019.53,1.71,-4.64,-2.93,0,0,10
56.03,-38.82,1019.53,-0.85,-0.61,-1.22,0,-1,10
65.55,-61.71,1015.5,1.22,-0.98,6.96,-1,0,11
65.55,-61.71,1015.5,0.12,-1.95,-2.56,0,0,11
65.55,-65.73,1008.91,2.93,2.32,3.91,0,1,9
65.55,-65.73,1008.91,-0.61,1.22,5.98,0,0,10
68.66,-53.28,1006.71,0.85,6.35,4.39,0,1,10
68.66,-53.28,1006.71,0.37,-3.54,-2.93,1,0,10
55.66,-47.97,1013.67,3.17,2.93,2.69,0,0,11
55.66,-47.97,1013.67,-4.64,3.42,-5,1,0,10
41.38,-33.14,1020.81,4.15,-0.98,-6.96,0,-2,11
41.38,-33.14,1020.81,0.49,1.83,-5.98,-1,0,10
30.03,-6.59,1016.97,-6.84,-3.05,-0.73,0,0,10
30.03,-6.59,1016.97,-1.34,1.71,0.24,0,-1,10
23.99,3.66,1013.49,2.69,0.98,-1.83,-1,-1,10
17.58,17.58,1013.67,-1.34,1.1,-6.23,0,1,11
17.58,17.58,1013.67,5.25,10.5,3.17,0,0,10
17.76,27.47,1012.21,-1.95,5.74,-5.13,0,0,10
17.76,27.47,1012.21,1.22,4.27,8.06,0,0,10
17.76,18.13,1026.31,-5.25,0.85,4.76,0,0,10
17.76,18.13,1026.31,0.85,9.03,-1.83,0,0,10
17.76,18.13,1026.31,-3.42,0.49,1.1,0,0,10
17.76,18.13,1026.31,1.95,10.74,0.73,0,0,10
17.76,18.13,1026.31,2.08,-2.2,0.73,0,0,10
17.76,18.13,1026.31,2.56,6.23,4.52,0,1,10
91.37,-55.48,1002.5,0,3.3,-7.08,0,0,10
91.37,-55.48,1002.5,-1.46,3.54,3.17,0,0,10
82.03,-63.54,1007.45,-1.22,5,4.52,0,0,10
82.03,-63.54,1007.45,7.08,-2.2,0.61,0,0,10
66.1,-82.03,1031.8,-0.73,9.52,-6.84,-1,1,10
66.1,-82.03,1031.8,5.74,-1.83,-0.49,0,0,10
60.61,-76.72,1047,-2.69,3.66,0.12,0,1,10
60.61,-76.72,1047,-0.37,2.69,-5.49,0,1,10
